{
	"resourceType": "Bundle",
	"id": "12899b7c-cd97-4d86-8af2-24051e336478",
	"meta": {
		"lastUpdated": "2020-06-16T15:21:48.0134954+02:00",
		"source": "http://base-fhir.staging.sfm.cloud/api/v1/Patient/$getMedication",
		"profile": [
			"http://ehelse.no/fhir/StructureDefinition/sfm-MedicationBundle"
		]
	},
	"type": "document",
	"timestamp": "2020-06-16T15:21:48.0134679+02:00",
	"total": 42,
	"link": [
		{
			"relation": "self",
			"url": "http://base-fhir.staging.sfm.cloud/api/v1/Patient/$getMedication"
		}
	],
	"entry": [
		{
			"fullUrl": "urn:uuid:f474624d-c8f5-41b4-930f-f4499f61882c",
			"resource": {
				"resourceType": "Composition",
				"id": "f474624d-c8f5-41b4-930f-f4499f61882c",
				"meta": {
					"profile": [
						"http://ehelse.no/fhir/StructureDefinition/sfm-MedicationComposition"
					]
				},
				"identifier": {
					"value": "74c1ba7c-b2a0-4c3b-8b2b-b2a42bbdb8ea"
				},
				"status": "final",
				"type": {
					"coding": [
						{
							"system": "http://loinc.org",
							"code": "11503-0",
							"display": "Medical records"
						}
					]
				},
				"subject": {
					"reference": "urn:uuid:0d2accdb-d01f-4889-b262-216384a490f3",
					"display": "sfm-Patient"
				},
				"date": "2020-06-16T15:21:47.9721908+02:00",
				"author": [
					{
						"reference": "urn:uuid:137597855",
						"display": "sfm-Practitioner"
					}
				],
				"title": "Medication summary",
				"confidentiality": "N",
				"section": [
					{
						"title": "Medication",
						"code": {
							"coding": [
								{
									"system": "http://ehelse.no/fhir/CodeSystem/sfm-section-types",
									"code": "sectionMedication",
									"display": "List of Medication statements"
								}
							]
						},
						"text": {
							"status": "generated",
							"div": "<xhtml:div xmlns:xhtml=\"http://www.w3.org/1999/xhtml\">List of medications</xhtml:div>"
						},
						"entry": [
							{
								"reference": "urn:uuid:6281d110-b4e7-44bf-aca1-1a96d7e001a2",
								"display": "sfm-MedicationStatement"
							},
							{
								"reference": "urn:uuid:4a3f27aa-78cf-4be4-ac72-2bcb1d7717ba",
								"display": "sfm-MedicationStatement"
							},
							{
								"reference": "urn:uuid:25c2f33c-b90f-4dfd-9048-177b85db53cc",
								"display": "sfm-MedicationStatement"
							},
							{
								"reference": "urn:uuid:3f85b410-d4eb-401a-a057-2d9ccc63a683",
								"display": "sfm-MedicationStatement"
							},
							{
								"reference": "urn:uuid:904e982a-7dc8-4f21-a2ac-bc2cc8e68f70",
								"display": "sfm-MedicationStatement"
							},
							{
								"reference": "urn:uuid:d070b125-118b-494f-8101-424110982479",
								"display": "sfm-MedicationStatement"
							},
							{
								"reference": "urn:uuid:a28d0e43-49d5-41ec-bab1-b033fcd8a372",
								"display": "sfm-MedicationStatement"
							},
							{
								"reference": "urn:uuid:7b8f8b1d-3565-4900-bc97-c544c35cf620",
								"display": "sfm-MedicationStatement"
							},
							{
								"reference": "urn:uuid:4a70798d-ad3e-4683-a9e1-a08a449936a3",
								"display": "sfm-MedicationStatement"
							},
							{
								"reference": "urn:uuid:ceca33fd-435f-4184-b8c4-20f0ccfa9799",
								"display": "sfm-MedicationStatement"
							},
							{
								"reference": "urn:uuid:04f6732b-1309-48e6-85e6-736ed986e3e5",
								"display": "sfm-MedicationStatement"
							},
							{
								"reference": "urn:uuid:caeeef80-5667-49be-aa77-9ddff90ebfdb",
								"display": "sfm-MedicationStatement"
							},
							{
								"reference": "urn:uuid:15ccb68a-503c-4b47-9259-9146bdc75ac2",
								"display": "sfm-MedicationStatement"
							}
						]
					},
					{
						"title": "PllInfo",
						"code": {
							"coding": [
								{
									"system": "http://ehelse.no/fhir/CodeSystem/sfm-section-types",
									"code": "sectionPLLinfo",
									"display": "PLL Info"
								}
							]
						},
						"text": {
							"status": "generated",
							"div": "<xhtml:div xmlns:xhtml=\"http://www.w3.org/1999/xhtml\">Info read from M25</xhtml:div>"
						},
						"entry": [
							{
								"reference": "urn:uuid:63a4a7f5-209a-4f98-b2b7-6754bb059404"
							}
						]
					},
					{
						"title": "Allergies",
						"code": {
							"coding": [
								{
									"system": "http://ehelse.no/fhir/CodeSystem/sfm-section-types",
									"code": "sectionAllergies",
									"display": "Section allergies"
								}
							]
						},
						"text": {
							"status": "generated",
							"div": "<xhtml:div xmlns:xhtml=\"http://www.w3.org/1999/xhtml\">List of allergies</xhtml:div>"
						},
						"entry": [
							{
								"reference": "urn:uuid:db62df3d-805c-4147-941a-2ce4da94b063",
								"display": "KjAllergyIntolerance"
							}
						]
					},
					{
						"title": "sectionDispense",
						"code": {
							"coding": [
								{
									"system": "http://ehelse.no/fhir/CodeSystem/sfm-section-types",
									"code": "sectionDispense",
									"display": "Section dispense"
								}
							]
						},
						"text": {
							"status": "generated",
							"div": "<xhtml:div xmlns:xhtml=\"http://www.w3.org/1999/xhtml\">List of dispense messages</xhtml:div>"
						},
						"entry": [
							{
								"reference": "urn:uuid:2f8bb0b5-6423-421d-8a65-27fede033bd8",
								"display": "sfm-MedicationDispense"
							}
						]
					},
					{
						"title": "Other Prescriptions",
						"code": {
							"coding": [
								{
									"system": "http://ehelse.no/fhir/CodeSystem/sfm-section-types",
									"code": "sectionOtherPrescriptions",
									"display": "List of non medical prescriptions"
								}
							]
						},
						"text": {
							"status": "generated",
							"div": "<xhtml:div xmlns:xhtml=\"http://www.w3.org/1999/xhtml\">List of non medical prescriptions</xhtml:div>"
						},
						"entry": [
							{
								"reference": "urn:uuid:29b752dd-025c-43b3-bb4c-e5be6589ba00",
								"display": "sfm-BandaPrescription"
							},
							{
								"reference": "urn:uuid:c6f04d13-32ee-4e78-8a8a-013a7384f3a4",
								"display": "sfm-BandaPrescription"
							}
						]
					}
				]
			}
		},
		{
			"fullUrl": "urn:uuid:0d2accdb-d01f-4889-b262-216384a490f3",
			"resource": {
				"resourceType": "Patient",
				"id": "0d2accdb-d01f-4889-b262-216384a490f3",
				"meta": {
					"profile": [
						"http://ehelse.no/fhir/StructureDefinition/sfm-Patient"
					]
				},
				"identifier": [
					{
						"use": "official",
						"system": "urn:oid:2.16.578.1.12.4.1.4.1",
						"value": "22110056781"
					}
				],
				"active": true,
				"name": [
					{
						"family": "Iversen",
						"given": [
							"Marcus"
						]
					}
				],
				"gender": "male",
				"address": [
					{
						"use": "home",
						"type": "physical",
						"text": "Testveien 10",
						"city": "Oslo",
						"postalCode": "1234"
					}
				]
			}
		},
		{
			"fullUrl": "urn:uuid:1402057795",
			"resource": {
				"resourceType": "Practitioner",
				"id": "1402057795",
				"identifier": [
					{
						"use": "official",
						"type": {
							"coding": [
								{
									"system": "http://hl7.no/fhir/NamingSystem/HPR",
									"code": "HPR-nummer"
								}
							]
						},
						"system": "urn:oid:2.16.578.1.12.4.1.4.4",
						"value": "009144889"
					}
				]
			}
		},
		{
			"fullUrl": "urn:uuid:43270239",
			"resource": {
				"resourceType": "Medication",
				"id": "43270239",
				"meta": {
					"profile": [
						"http://ehelse.no/fhir/StructureDefinition/sfm-Medication"
					]
				},
				"extension": [
					{
						"extension": [
							{
								"url": "prescriptiongroup",
								"valueCodeableConcept": {
									"coding": [
										{
											"system": "urn:oid:2.16.578.1.12.4.1.1.7421",
											"code": "C",
											"display": "Reseptgruppe C"
										}
									]
								}
							}
						],
						"url": "http://hl7.no/fhir/StructureDefinition/no-basis-prescriptiongroup"
					}
				],
				"identifier": [
					{
						"use": "official",
						"type": {
							"text": "identifier"
						},
						"value": "036320"
					}
				],
				"code": {
					"coding": [
						{
							"system": "http://ehelse.no/fhir/CodeSystem/FEST",
							"code": "036320",
							"display": "Selo-Zok DEPOTtab 100 mg"
						},
						{
							"system": "http://www.whocc.no/atc",
							"code": "C07AB02",
							"display": "Metoprolol"
						}
					]
				},
				"status": "active",
				"form": {
					"coding": [
						{
							"system": "urn:oid:2.16.578.1.12.4.1.1.7448",
							"code": "25",
							"display": "Depottablett"
						}
					]
				}
			}
		},
		{
			"fullUrl": "urn:uuid:6281d110-b4e7-44bf-aca1-1a96d7e001a2",
			"resource": {
				"resourceType": "MedicationStatement",
				"id": "6281d110-b4e7-44bf-aca1-1a96d7e001a2",
				"extension": [
					{
						"extension": [
							{
								"url": "reseptDate",
								"valueDate": "2020-05-13"
							},
							{
								"url": "expirationdate",
								"valueDate": "2021-05-13"
							},
							{
								"url": "festUpdate",
								"valueDateTime": "2020-04-24T09:44:30+02:00"
							},
							{
								"url": "dssn",
								"valueString": "1 tablett daglig"
							},
							{
								"url": "lockedResept",
								"valueBoolean": false
							},
							{
								"url": "numberofpackages",
								"valueDecimal": 1.0
							},
							{
								"url": "reit",
								"valueString": "3"
							},
							{
								"url": "speciality",
								"valueCodeableConcept": {
									"coding": [
										{
											"system": "urn:oid:2.16.578.1.12.4.1.1.7426",
											"code": "190",
											"display": "Indremedisin"
										}
									]
								}
							},
							{
								"url": "itemgroup",
								"valueCodeableConcept": {
									"coding": [
										{
											"system": "urn:oid:2.16.578.1.12.4.1.1.7402",
											"code": "L",
											"display": "Legemiddel"
										}
									]
								}
							},
							{
								"extension": [
									{
										"url": "starttime",
										"valueDateTime": "2020-05-13T02:00:00+02:00"
									},
									{
										"extension": [
											{
												"url": "amount",
												"valueQuantity": {
													"value": 1.0,
													"unit": "tablett",
													"system": "http://unitsofmeasure.org",
													"code": "tablett"
												}
											},
											{
												"url": "interval",
												"valueCodeableConcept": {
													"coding": [
														{
															"system": "urn:oid:2.16.578.1.12.4.1.1.9088",
															"code": "1",
															"display": "Døgn"
														}
													]
												}
											},
											{
												"url": "timerange",
												"valueCodeableConcept": {
													"coding": [
														{
															"system": "urn:oid:2.16.578.1.12.4.1.1.8325",
															"code": "1",
															"display": "Morgen"
														}
													]
												}
											},
											{
												"url": "accurate",
												"valueBoolean": false
											}
										],
										"url": "repeatingdosage"
									}
								],
								"url": "ereseptdosing"
							},
							{
								"extension": [
									{
										"url": "nameDispenser",
										"valueString": "Testapotek Monier"
									},
									{
										"url": "recallStatus",
										"valueBoolean": false
									},
									{
										"url": "status",
										"valueCodeableConcept": {
											"coding": [
												{
													"system": "urn:oid:2.16.578.1.12.4.1.1.7408",
													"code": "E",
													"display": "Ekspederbar"
												}
											]
										}
									}
								],
								"url": "rfstatus"
							}
						],
						"url": "http://ehelse.no/fhir/StructureDefinition/sfm-reseptamendment"
					},
					{
						"extension": [
							{
								"url": "pakningsstr",
								"valueQuantity": {
									"value": 100.0,
									"unit": "stk",
									"system": "http://unitsofmeasure.org",
									"code": "stk"
								}
							},
							{
								"url": "varenummer",
								"valueString": "036320"
							},
							{
								"url": "varenavn",
								"valueString": "Selo-Zok DEPOTtab 100 mg"
							},
							{
								"url": "antallpkntotalt",
								"valueDecimal": 1.0
							},
							{
								"url": "antallpknsiste",
								"valueDecimal": 1.0
							},
							{
								"url": "sistutlevert",
								"valueDateTime": "2020-06-03T02:00:00+02:00"
							}
						],
						"url": "http://ehelse.no/fhir/StructureDefinition/sfm-deliverysummary"
					},
					{
						"extension": [
							{
								"url": "status",
								"valueCodeableConcept": {
									"coding": [
										{
											"system": "http://ehelse.no/fhir/CodeSystem/sfm-medicationstatement-registration-status",
											"code": "3",
											"display": "Godkjent"
										}
									]
								}
							},
							{
								"url": "type",
								"valueCodeableConcept": {
									"coding": [
										{
											"system": "http://ehelse.no/fhir/CodeSystem/sfm-performer-roles",
											"code": "1",
											"display": "Forskrevet av"
										}
									]
								}
							},
							{
								"url": "helseperson",
								"valueReference": {
									"reference": "urn:uuid:1402057795"
								}
							},
							{
								"url": "timestamp",
								"valueDateTime": "2020-05-13T13:03:10.6047487+02:00"
							}
						],
						"url": "http://ehelse.no/fhir/StructureDefinition/sfm-regInfo"
					}
				],
				"identifier": [
					{
						"use": "usual",
						"type": {
							"text": "PLL"
						},
						"value": "1d7e29c7-752e-4360-9970-18e5ad9effb5"
					},
					{
						"use": "usual",
						"type": {
							"text": "ReseptId"
						},
						"value": "3c013a87-30e7-43a0-8a45-18e5adc6768a"
					}
				],
				"status": "active",
				"medicationReference": {
					"reference": "urn:uuid:43270239"
				},
				"subject": {
					"reference": "urn:uuid:0d2accdb-d01f-4889-b262-216384a490f3",
					"display": "sfm-Patient"
				},
				"dosage": [
					{
						"extension": [
							{
								"extension": [
									{
										"url": "text",
										"valueString": "BLODTRYKKSMEDISIN"
									}
								],
								"url": "http://example.org/fhir/StructureDefinition/sfm-application-area"
							},
							{
								"url": "http://ehelse.no/fhir/StructureDefinition/sfm-shortdosage",
								"valueCodeableConcept": {
									"coding": [
										{
											"system": "urn:oid:2.16.578.1.12.4.1.1.7478",
											"code": "93",
											"display": "1 daglig"
										}
									]
								}
							},
							{
								"url": "http://ehelse.no/fhir/StructureDefinition/sfm-use",
								"valueCodeableConcept": {
									"coding": [
										{
											"system": "urn:oid:2.16.578.1.12.4.1.1.9101",
											"code": "1",
											"display": "Fast"
										}
									]
								}
							}
						],
						"sequence": 1,
						"text": "1 tablett daglig"
					}
				]
			}
		},
		{
			"fullUrl": "urn:uuid:2f8bb0b5-6423-421d-8a65-27fede033bd8",
			"resource": {
				"resourceType": "MedicationDispense",
				"id": "2f8bb0b5-6423-421d-8a65-27fede033bd8",
				"extension": [
					{
						"extension": [
							{
								"url": "cancelation",
								"valueBoolean": false
							},
							{
								"url": "concluded",
								"valueBoolean": false
							},
							{
								"url": "prescriptionid",
								"valueString": "3c013a87-30e7-43a0-8a45-18e5adc6768a"
							}
						],
						"url": "http://ehelse.no/fhir/StructureDefinition/sfm-dispenseinfo"
					}
				],
				"identifier": [
					{
						"use": "official",
						"type": {
							"coding": [
								{
									"system": "M10id",
									"code": "2f8bb0b5-6423-421d-8a65-27fede033bd8"
								}
							],
							"text": "M10id"
						},
						"value": "2f8bb0b5-6423-421d-8a65-27fede033bd8"
					}
				],
				"status": "completed",
				"medicationReference": {
					"reference": "43270239",
					"display": "Medication"
				},
				"subject": {
					"reference": "0d2accdb-d01f-4889-b262-216384a490f3"
				},
				"authorizingPrescription": [
					{
						"reference": "6281d110-b4e7-44bf-aca1-1a96d7e001a2",
						"display": "MedicationStatement"
					}
				],
				"quantity": {
					"value": 100.0,
					"unit": "stykk",
					"code": "stykk"
				},
				"whenHandedOver": "2020-06-03",
				"dosageInstruction": [
					{
						"text": "1 tablett daglig"
					}
				]
			}
		},
		{
			"fullUrl": "urn:uuid:1530821445",
			"resource": {
				"resourceType": "Practitioner",
				"id": "1530821445",
				"identifier": [
					{
						"use": "official",
						"type": {
							"coding": [
								{
									"system": "http://hl7.no/fhir/NamingSystem/HPR",
									"code": "HPR-nummer"
								}
							]
						},
						"system": "urn:oid:2.16.578.1.12.4.1.4.4",
						"value": "222200082"
					}
				]
			}
		},
		{
			"fullUrl": "urn:uuid:60088100",
			"resource": {
				"resourceType": "Medication",
				"id": "60088100",
				"meta": {
					"profile": [
						"http://ehelse.no/fhir/StructureDefinition/sfm-Medication"
					]
				},
				"extension": [
					{
						"extension": [
							{
								"url": "prescriptiongroup",
								"valueCodeableConcept": {
									"coding": [
										{
											"system": "urn:oid:2.16.578.1.12.4.1.1.7421",
											"code": "C",
											"display": "Reseptgruppe C"
										}
									]
								}
							}
						],
						"url": "http://hl7.no/fhir/StructureDefinition/no-basis-prescriptiongroup"
					},
					{
						"extension": [
							{
								"url": "maycrush",
								"valueCodeableConcept": {
									"coding": [
										{
											"system": "urn:oid:2.16.578.1.12.4.1.1.1103",
											"code": "2",
											"display": "Nei"
										}
									]
								}
							},
							{
								"url": "administrationway",
								"valueCodeableConcept": {
									"coding": [
										{
											"system": "urn:oid:2.16.578.1.12.4.1.1.7477",
											"code": "Oral bruk"
										}
									]
								}
							},
							{
								"url": "name",
								"valueString": "Ramipril Tab 2,5 mg"
							}
						],
						"url": "http://ehelse.no/fhir/StructureDefinition/sfm-medicationdetails"
					}
				],
				"identifier": [
					{
						"use": "official",
						"type": {
							"text": "identifier"
						},
						"value": "ID_26B36A46-643C-4696-95DE-87292B73B768"
					}
				],
				"code": {
					"coding": [
						{
							"system": "http://ehelse.no/fhir/CodeSystem/FEST",
							"code": "ID_26B36A46-643C-4696-95DE-87292B73B768",
							"display": "Ramipril Tab 2,5 mg"
						},
						{
							"system": "http://www.whocc.no/atc",
							"code": "C09AA05",
							"display": "Ramipril"
						}
					]
				},
				"status": "active",
				"form": {
					"coding": [
						{
							"system": "urn:oid:2.16.578.1.12.4.1.1.7448",
							"code": "53",
							"display": "Tablett"
						}
					]
				}
			}
		},
		{
			"fullUrl": "urn:uuid:4a3f27aa-78cf-4be4-ac72-2bcb1d7717ba",
			"resource": {
				"resourceType": "MedicationStatement",
				"id": "4a3f27aa-78cf-4be4-ac72-2bcb1d7717ba",
				"extension": [
					{
						"extension": [
							{
								"url": "reseptDate",
								"valueDate": "2020-04-23"
							},
							{
								"url": "expirationdate",
								"valueDate": "2021-04-23"
							},
							{
								"url": "festUpdate",
								"valueDateTime": "2020-03-25T12:55:05+01:00"
							},
							{
								"url": "dssn",
								"valueString": "1 tablett daglig\nTas til samme tid hver dag"
							},
							{
								"url": "lockedResept",
								"valueBoolean": false
							},
							{
								"url": "amount",
								"valueQuantity": {
									"value": 92.0,
									"unit": "stk",
									"system": "http://unitsofmeasure.org",
									"code": "stk"
								}
							},
							{
								"url": "reit",
								"valueString": "3"
							},
							{
								"url": "itemgroup",
								"valueCodeableConcept": {
									"coding": [
										{
											"system": "urn:oid:2.16.578.1.12.4.1.1.7402",
											"code": "L",
											"display": "Legemiddel"
										}
									]
								}
							},
							{
								"extension": [
									{
										"url": "starttime",
										"valueDateTime": "2020-04-23T02:00:00+02:00"
									},
									{
										"extension": [
											{
												"url": "amount",
												"valueQuantity": {
													"value": 1.0,
													"unit": "ampulle",
													"system": "http://unitsofmeasure.org",
													"code": "ampulle"
												}
											},
											{
												"url": "interval",
												"valueCodeableConcept": {
													"coding": [
														{
															"system": "urn:oid:2.16.578.1.12.4.1.1.9088",
															"code": "1",
															"display": "Døgn"
														}
													]
												}
											},
											{
												"url": "timerange",
												"valueCodeableConcept": {
													"coding": [
														{
															"system": "urn:oid:2.16.578.1.12.4.1.1.8325",
															"code": "1",
															"display": "Morgen"
														}
													]
												}
											},
											{
												"url": "accurate",
												"valueBoolean": false
											}
										],
										"url": "repeatingdosage"
									}
								],
								"url": "ereseptdosing"
							},
							{
								"extension": [
									{
										"url": "recallStatus",
										"valueBoolean": false
									},
									{
										"url": "status",
										"valueCodeableConcept": {
											"coding": [
												{
													"system": "urn:oid:2.16.578.1.12.4.1.1.7408",
													"code": "E",
													"display": "Ekspederbar"
												}
											]
										}
									}
								],
								"url": "rfstatus"
							}
						],
						"url": "http://ehelse.no/fhir/StructureDefinition/sfm-reseptamendment"
					},
					{
						"extension": [
							{
								"url": "status",
								"valueCodeableConcept": {
									"coding": [
										{
											"system": "http://ehelse.no/fhir/CodeSystem/sfm-medicationstatement-registration-status",
											"code": "3",
											"display": "Godkjent"
										}
									]
								}
							},
							{
								"url": "type",
								"valueCodeableConcept": {
									"coding": [
										{
											"system": "http://ehelse.no/fhir/CodeSystem/sfm-performer-roles",
											"code": "1",
											"display": "Forskrevet av"
										}
									]
								}
							},
							{
								"url": "helseperson",
								"valueReference": {
									"reference": "urn:uuid:1530821445"
								}
							},
							{
								"url": "timestamp",
								"valueDateTime": "2020-04-23T09:49:59.9979717+02:00"
							}
						],
						"url": "http://ehelse.no/fhir/StructureDefinition/sfm-regInfo"
					}
				],
				"identifier": [
					{
						"use": "usual",
						"type": {
							"text": "PLL"
						},
						"value": "ad63d46a-47d9-4519-992a-18d4ff9eab24"
					},
					{
						"use": "usual",
						"type": {
							"text": "ReseptId"
						},
						"value": "97b41701-4de0-4f70-93cd-18bc8e5df32f"
					}
				],
				"status": "active",
				"medicationReference": {
					"reference": "urn:uuid:60088100"
				},
				"subject": {
					"reference": "urn:uuid:0d2accdb-d01f-4889-b262-216384a490f3",
					"display": "sfm-Patient"
				},
				"dosage": [
					{
						"extension": [
							{
								"extension": [
									{
										"url": "text",
										"valueString": "BLODTRYKKSMEDISIN"
									}
								],
								"url": "http://example.org/fhir/StructureDefinition/sfm-application-area"
							},
							{
								"url": "http://ehelse.no/fhir/StructureDefinition/sfm-shortdosage",
								"valueCodeableConcept": {
									"coding": [
										{
											"system": "urn:oid:2.16.578.1.12.4.1.1.7478",
											"code": "93",
											"display": "1 daglig"
										}
									]
								}
							},
							{
								"url": "http://ehelse.no/fhir/StructureDefinition/sfm-use",
								"valueCodeableConcept": {
									"coding": [
										{
											"system": "urn:oid:2.16.578.1.12.4.1.1.9101",
											"code": "1",
											"display": "Fast"
										}
									]
								}
							}
						],
						"sequence": 1,
						"text": "1 tablett daglig\nTas til samme tid hver dag"
					}
				]
			}
		},
		{
			"fullUrl": "urn:uuid:9608207",
			"resource": {
				"resourceType": "Medication",
				"id": "9608207",
				"meta": {
					"profile": [
						"http://ehelse.no/fhir/StructureDefinition/sfm-Medication"
					]
				},
				"extension": [
					{
						"extension": [
							{
								"url": "prescriptiongroup",
								"valueCodeableConcept": {
									"coding": [
										{
											"system": "urn:oid:2.16.578.1.12.4.1.1.7421",
											"code": "C",
											"display": "Reseptgruppe C"
										}
									]
								}
							}
						],
						"url": "http://hl7.no/fhir/StructureDefinition/no-basis-prescriptiongroup"
					}
				],
				"identifier": [
					{
						"use": "official",
						"type": {
							"text": "identifier"
						},
						"value": "153730"
					}
				],
				"code": {
					"coding": [
						{
							"system": "http://ehelse.no/fhir/CodeSystem/FEST",
							"code": "153730",
							"display": "Calcigran Forte Tyggetab 1000 mg/800 IE"
						},
						{
							"system": "http://www.whocc.no/atc",
							"code": "A12AX",
							"display": "Kalsium, kombinasjoner med vitamin D og/eller andre stoffer"
						}
					]
				},
				"status": "active",
				"form": {
					"coding": [
						{
							"system": "urn:oid:2.16.578.1.12.4.1.1.7448",
							"code": "57",
							"display": "Tyggetablett"
						}
					]
				}
			}
		},
		{
			"fullUrl": "urn:uuid:25c2f33c-b90f-4dfd-9048-177b85db53cc",
			"resource": {
				"resourceType": "MedicationStatement",
				"id": "25c2f33c-b90f-4dfd-9048-177b85db53cc",
				"extension": [
					{
						"extension": [
							{
								"url": "reseptDate",
								"valueDate": "2020-05-05"
							},
							{
								"url": "expirationdate",
								"valueDate": "2021-05-04"
							},
							{
								"url": "festUpdate",
								"valueDateTime": "2020-03-25T12:55:05+01:00"
							},
							{
								"url": "dssn",
								"valueString": "0 tyggetablett morgen og 1 tyggetablett kveld daglig"
							},
							{
								"url": "lockedResept",
								"valueBoolean": false
							},
							{
								"url": "numberofpackages",
								"valueDecimal": 2.0
							},
							{
								"url": "reit",
								"valueString": "3"
							},
							{
								"url": "itemgroup",
								"valueCodeableConcept": {
									"coding": [
										{
											"system": "urn:oid:2.16.578.1.12.4.1.1.7402",
											"code": "L",
											"display": "Legemiddel"
										}
									]
								}
							},
							{
								"extension": [
									{
										"url": "starttime",
										"valueDateTime": "2020-05-05T02:00:00+02:00"
									},
									{
										"extension": [
											{
												"url": "amount",
												"valueQuantity": {
													"value": 0.0,
													"unit": "tyggetablett",
													"system": "http://unitsofmeasure.org",
													"code": "tyggetablett"
												}
											},
											{
												"url": "interval",
												"valueCodeableConcept": {
													"coding": [
														{
															"system": "urn:oid:2.16.578.1.12.4.1.1.9088",
															"code": "1",
															"display": "Døgn"
														}
													]
												}
											},
											{
												"url": "timerange",
												"valueCodeableConcept": {
													"coding": [
														{
															"system": "urn:oid:2.16.578.1.12.4.1.1.8325",
															"code": "1",
															"display": "Morgen"
														}
													]
												}
											},
											{
												"url": "accurate",
												"valueBoolean": false
											}
										],
										"url": "repeatingdosage"
									},
									{
										"extension": [
											{
												"url": "amount",
												"valueQuantity": {
													"value": 1.0,
													"unit": "tyggetablett",
													"system": "http://unitsofmeasure.org",
													"code": "tyggetablett"
												}
											},
											{
												"url": "interval",
												"valueCodeableConcept": {
													"coding": [
														{
															"system": "urn:oid:2.16.578.1.12.4.1.1.9088",
															"code": "1",
															"display": "Døgn"
														}
													]
												}
											},
											{
												"url": "timerange",
												"valueCodeableConcept": {
													"coding": [
														{
															"system": "urn:oid:2.16.578.1.12.4.1.1.8325",
															"code": "5",
															"display": "Kveld"
														}
													]
												}
											},
											{
												"url": "accurate",
												"valueBoolean": false
											}
										],
										"url": "repeatingdosage"
									}
								],
								"url": "ereseptdosing"
							},
							{
								"extension": [
									{
										"url": "recallStatus",
										"valueBoolean": false
									},
									{
										"url": "status",
										"valueCodeableConcept": {
											"coding": [
												{
													"system": "urn:oid:2.16.578.1.12.4.1.1.7408",
													"code": "E",
													"display": "Ekspederbar"
												}
											]
										}
									}
								],
								"url": "rfstatus"
							}
						],
						"url": "http://ehelse.no/fhir/StructureDefinition/sfm-reseptamendment"
					},
					{
						"extension": [
							{
								"url": "status",
								"valueCodeableConcept": {
									"coding": [
										{
											"system": "http://ehelse.no/fhir/CodeSystem/sfm-medicationstatement-registration-status",
											"code": "3",
											"display": "Godkjent"
										}
									]
								}
							},
							{
								"url": "type",
								"valueCodeableConcept": {
									"coding": [
										{
											"system": "http://ehelse.no/fhir/CodeSystem/sfm-performer-roles",
											"code": "1",
											"display": "Forskrevet av"
										}
									]
								}
							},
							{
								"url": "helseperson",
								"valueReference": {
									"reference": "urn:uuid:1530821445"
								}
							},
							{
								"url": "timestamp",
								"valueDateTime": "2020-05-05T10:31:05.0814286+02:00"
							}
						],
						"url": "http://ehelse.no/fhir/StructureDefinition/sfm-regInfo"
					}
				],
				"identifier": [
					{
						"use": "usual",
						"type": {
							"text": "PLL"
						},
						"value": "6915eb3d-82df-4211-bf7c-18d5644fa0f5"
					},
					{
						"use": "usual",
						"type": {
							"text": "ReseptId"
						},
						"value": "40aebbec-954b-4191-ab57-18d505b88e90"
					}
				],
				"status": "active",
				"medicationReference": {
					"reference": "urn:uuid:9608207"
				},
				"subject": {
					"reference": "urn:uuid:0d2accdb-d01f-4889-b262-216384a490f3",
					"display": "sfm-Patient"
				},
				"dosage": [
					{
						"extension": [
							{
								"extension": [
									{
										"url": "text",
										"valueString": "MOT BENSKJØRHET"
									}
								],
								"url": "http://example.org/fhir/StructureDefinition/sfm-application-area"
							},
							{
								"url": "http://ehelse.no/fhir/StructureDefinition/sfm-use",
								"valueCodeableConcept": {
									"coding": [
										{
											"system": "urn:oid:2.16.578.1.12.4.1.1.9101",
											"code": "1",
											"display": "Fast"
										}
									]
								}
							}
						],
						"sequence": 1,
						"text": "0 tyggetablett morgen og 1 tyggetablett kveld daglig"
					}
				]
			}
		},
		{
			"fullUrl": "urn:uuid:36290219",
			"resource": {
				"resourceType": "Medication",
				"id": "36290219",
				"meta": {
					"profile": [
						"http://ehelse.no/fhir/StructureDefinition/sfm-Medication"
					]
				},
				"extension": [
					{
						"extension": [
							{
								"url": "prescriptiongroup",
								"valueCodeableConcept": {
									"coding": [
										{
											"system": "urn:oid:2.16.578.1.12.4.1.1.7421",
											"code": "C",
											"display": "Reseptgruppe C"
										}
									]
								}
							}
						],
						"url": "http://hl7.no/fhir/StructureDefinition/no-basis-prescriptiongroup"
					},
					{
						"extension": [
							{
								"url": "maycrush",
								"valueCodeableConcept": {
									"coding": [
										{
											"system": "urn:oid:2.16.578.1.12.4.1.1.1103",
											"code": "9",
											"display": "Ukjent"
										}
									]
								}
							},
							{
								"url": "administrationway",
								"valueCodeableConcept": {
									"coding": [
										{
											"system": "urn:oid:2.16.578.1.12.4.1.1.7477",
											"code": "Oral bruk"
										}
									]
								}
							},
							{
								"url": "name",
								"valueString": "Paracetamol/Acetylsalisylsyre/Koffein Tab 250 mg/250 mg/50 mg"
							}
						],
						"url": "http://ehelse.no/fhir/StructureDefinition/sfm-medicationdetails"
					}
				],
				"identifier": [
					{
						"use": "official",
						"type": {
							"text": "identifier"
						},
						"value": "ID_1B45A541-BADA-437D-98DF-2F49697E6915"
					}
				],
				"code": {
					"coding": [
						{
							"system": "http://ehelse.no/fhir/CodeSystem/FEST",
							"code": "ID_1B45A541-BADA-437D-98DF-2F49697E6915",
							"display": "Paracetamol/Acetylsalisylsyre/Koffein Tab 250 mg/250 mg/50 mg"
						},
						{
							"system": "http://www.whocc.no/atc",
							"code": "N02BE51",
							"display": "Paracetamol, kombinasjoner ekskl. psykoleptika"
						}
					]
				},
				"status": "active",
				"form": {
					"coding": [
						{
							"system": "urn:oid:2.16.578.1.12.4.1.1.7448",
							"code": "53",
							"display": "Tablett"
						}
					]
				}
			}
		},
		{
			"fullUrl": "urn:uuid:3f85b410-d4eb-401a-a057-2d9ccc63a683",
			"resource": {
				"resourceType": "MedicationStatement",
				"id": "3f85b410-d4eb-401a-a057-2d9ccc63a683",
				"extension": [
					{
						"extension": [
							{
								"url": "reseptDate",
								"valueDate": "2020-04-15"
							},
							{
								"url": "expirationdate",
								"valueDate": "2021-04-14"
							},
							{
								"url": "festUpdate",
								"valueDateTime": "2020-03-09T10:31:53+01:00"
							},
							{
								"url": "dssn",
								"valueString": "1 tablett morgen 1 tablett midt på dagen 1 tablett kveld"
							},
							{
								"url": "lockedResept",
								"valueBoolean": false
							},
							{
								"url": "amount",
								"valueQuantity": {
									"value": 20.0,
									"unit": "stk",
									"system": "http://unitsofmeasure.org",
									"code": "stk"
								}
							},
							{
								"url": "reit",
								"valueString": "0"
							},
							{
								"url": "itemgroup",
								"valueCodeableConcept": {
									"coding": [
										{
											"system": "urn:oid:2.16.578.1.12.4.1.1.7402",
											"code": "L",
											"display": "Legemiddel"
										}
									]
								}
							},
							{
								"extension": [
									{
										"url": "starttime",
										"valueDateTime": "2020-04-15T02:00:00+02:00"
									},
									{
										"extension": [
											{
												"url": "amount",
												"valueQuantity": {
													"value": 1.0,
													"unit": "ampulle",
													"system": "http://unitsofmeasure.org",
													"code": "ampulle"
												}
											},
											{
												"url": "interval",
												"valueCodeableConcept": {
													"coding": [
														{
															"system": "urn:oid:2.16.578.1.12.4.1.1.9088",
															"code": "1",
															"display": "Døgn"
														}
													]
												}
											},
											{
												"url": "timerange",
												"valueCodeableConcept": {
													"coding": [
														{
															"system": "urn:oid:2.16.578.1.12.4.1.1.8325",
															"code": "1",
															"display": "Morgen"
														}
													]
												}
											},
											{
												"url": "accurate",
												"valueBoolean": false
											}
										],
										"url": "repeatingdosage"
									},
									{
										"extension": [
											{
												"url": "amount",
												"valueQuantity": {
													"value": 1.0,
													"unit": "ampulle",
													"system": "http://unitsofmeasure.org",
													"code": "ampulle"
												}
											},
											{
												"url": "interval",
												"valueCodeableConcept": {
													"coding": [
														{
															"system": "urn:oid:2.16.578.1.12.4.1.1.9088",
															"code": "1",
															"display": "Døgn"
														}
													]
												}
											},
											{
												"url": "timerange",
												"valueCodeableConcept": {
													"coding": [
														{
															"system": "urn:oid:2.16.578.1.12.4.1.1.8325",
															"code": "3",
															"display": "Midt på dagen"
														}
													]
												}
											},
											{
												"url": "accurate",
												"valueBoolean": false
											}
										],
										"url": "repeatingdosage"
									},
									{
										"extension": [
											{
												"url": "amount",
												"valueQuantity": {
													"value": 1.0,
													"unit": "ampulle",
													"system": "http://unitsofmeasure.org",
													"code": "ampulle"
												}
											},
											{
												"url": "interval",
												"valueCodeableConcept": {
													"coding": [
														{
															"system": "urn:oid:2.16.578.1.12.4.1.1.9088",
															"code": "1",
															"display": "Døgn"
														}
													]
												}
											},
											{
												"url": "timerange",
												"valueCodeableConcept": {
													"coding": [
														{
															"system": "urn:oid:2.16.578.1.12.4.1.1.8325",
															"code": "5",
															"display": "Kveld"
														}
													]
												}
											},
											{
												"url": "accurate",
												"valueBoolean": false
											}
										],
										"url": "repeatingdosage"
									}
								],
								"url": "ereseptdosing"
							},
							{
								"extension": [
									{
										"url": "recallStatus",
										"valueBoolean": false
									},
									{
										"url": "status",
										"valueCodeableConcept": {
											"coding": [
												{
													"system": "urn:oid:2.16.578.1.12.4.1.1.7408",
													"code": "E",
													"display": "Ekspederbar"
												}
											]
										}
									}
								],
								"url": "rfstatus"
							}
						],
						"url": "http://ehelse.no/fhir/StructureDefinition/sfm-reseptamendment"
					},
					{
						"extension": [
							{
								"url": "status",
								"valueCodeableConcept": {
									"coding": [
										{
											"system": "http://ehelse.no/fhir/CodeSystem/sfm-medicationstatement-registration-status",
											"code": "3",
											"display": "Godkjent"
										}
									]
								}
							},
							{
								"url": "type",
								"valueCodeableConcept": {
									"coding": [
										{
											"system": "http://ehelse.no/fhir/CodeSystem/sfm-performer-roles",
											"code": "1",
											"display": "Forskrevet av"
										}
									]
								}
							},
							{
								"url": "helseperson",
								"valueReference": {
									"reference": "urn:uuid:1530821445"
								}
							},
							{
								"url": "timestamp",
								"valueDateTime": "2020-04-15T12:19:54.3978811+02:00"
							}
						],
						"url": "http://ehelse.no/fhir/StructureDefinition/sfm-regInfo"
					}
				],
				"identifier": [
					{
						"use": "usual",
						"type": {
							"text": "PLL"
						},
						"value": "7d6fca5f-7292-43f9-9dbd-18d4ff9ebdb2"
					},
					{
						"use": "usual",
						"type": {
							"text": "ReseptId"
						},
						"value": "f657734c-5dd8-47f5-a43b-18ac7ee89b49"
					}
				],
				"status": "active",
				"medicationReference": {
					"reference": "urn:uuid:36290219"
				},
				"subject": {
					"reference": "urn:uuid:0d2accdb-d01f-4889-b262-216384a490f3",
					"display": "sfm-Patient"
				},
				"dosage": [
					{
						"extension": [
							{
								"extension": [
									{
										"url": "text",
										"valueString": "MOT SMERTER"
									}
								],
								"url": "http://example.org/fhir/StructureDefinition/sfm-application-area"
							},
							{
								"url": "http://ehelse.no/fhir/StructureDefinition/sfm-shortdosage",
								"valueCodeableConcept": {
									"coding": [
										{
											"system": "urn:oid:2.16.578.1.12.4.1.1.7478",
											"code": "216",
											"display": "1+1+1"
										}
									]
								}
							},
							{
								"url": "http://ehelse.no/fhir/StructureDefinition/sfm-use",
								"valueCodeableConcept": {
									"coding": [
										{
											"system": "urn:oid:2.16.578.1.12.4.1.1.9101",
											"code": "3",
											"display": "Ved behov"
										}
									]
								}
							}
						],
						"sequence": 1,
						"text": "1 tablett morgen 1 tablett midt på dagen 1 tablett kveld"
					}
				]
			}
		},
		{
			"fullUrl": "urn:uuid:6270924",
			"resource": {
				"resourceType": "Medication",
				"id": "6270924",
				"meta": {
					"profile": [
						"http://ehelse.no/fhir/StructureDefinition/sfm-Medication"
					]
				},
				"extension": [
					{
						"extension": [
							{
								"url": "prescriptiongroup",
								"valueCodeableConcept": {
									"coding": [
										{
											"system": "urn:oid:2.16.578.1.12.4.1.1.7421",
											"code": "C",
											"display": "Reseptgruppe C"
										}
									]
								}
							}
						],
						"url": "http://hl7.no/fhir/StructureDefinition/no-basis-prescriptiongroup"
					},
					{
						"extension": [
							{
								"url": "maycrush",
								"valueCodeableConcept": {
									"coding": [
										{
											"system": "urn:oid:2.16.578.1.12.4.1.1.1103",
											"code": "2",
											"display": "Nei"
										}
									]
								}
							},
							{
								"url": "administrationway",
								"valueCodeableConcept": {
									"coding": [
										{
											"system": "urn:oid:2.16.578.1.12.4.1.1.7477",
											"code": "Oral bruk"
										}
									]
								}
							},
							{
								"url": "name",
								"valueString": "Esomeprazol Enterotab 40 mg"
							}
						],
						"url": "http://ehelse.no/fhir/StructureDefinition/sfm-medicationdetails"
					}
				],
				"identifier": [
					{
						"use": "official",
						"type": {
							"text": "identifier"
						},
						"value": "ID_5E3514F1-3B11-41B2-A1B2-094C8F23973F"
					}
				],
				"code": {
					"coding": [
						{
							"system": "http://ehelse.no/fhir/CodeSystem/FEST",
							"code": "ID_5E3514F1-3B11-41B2-A1B2-094C8F23973F",
							"display": "Esomeprazol Enterotab 40 mg"
						},
						{
							"system": "http://www.whocc.no/atc",
							"code": "A02BC05",
							"display": "Esomeprazol"
						}
					]
				},
				"status": "active",
				"form": {
					"coding": [
						{
							"system": "urn:oid:2.16.578.1.12.4.1.1.7448",
							"code": "28",
							"display": "Enterotablett"
						}
					]
				}
			}
		},
		{
			"fullUrl": "urn:uuid:904e982a-7dc8-4f21-a2ac-bc2cc8e68f70",
			"resource": {
				"resourceType": "MedicationStatement",
				"id": "904e982a-7dc8-4f21-a2ac-bc2cc8e68f70",
				"extension": [
					{
						"extension": [
							{
								"url": "reseptDate",
								"valueDate": "2020-04-15"
							},
							{
								"url": "expirationdate",
								"valueDate": "2021-04-15"
							},
							{
								"url": "festUpdate",
								"valueDateTime": "2020-03-09T10:31:53+01:00"
							},
							{
								"url": "dssn",
								"valueString": "1 tablett daglig"
							},
							{
								"url": "lockedResept",
								"valueBoolean": false
							},
							{
								"url": "amount",
								"valueQuantity": {
									"value": 92.0,
									"unit": "stk",
									"system": "http://unitsofmeasure.org",
									"code": "stk"
								}
							},
							{
								"url": "reit",
								"valueString": "3"
							},
							{
								"url": "itemgroup",
								"valueCodeableConcept": {
									"coding": [
										{
											"system": "urn:oid:2.16.578.1.12.4.1.1.7402",
											"code": "L",
											"display": "Legemiddel"
										}
									]
								}
							},
							{
								"extension": [
									{
										"url": "starttime",
										"valueDateTime": "2020-04-15T02:00:00+02:00"
									},
									{
										"extension": [
											{
												"url": "amount",
												"valueQuantity": {
													"value": 1.0,
													"unit": "ampulle",
													"system": "http://unitsofmeasure.org",
													"code": "ampulle"
												}
											},
											{
												"url": "interval",
												"valueCodeableConcept": {
													"coding": [
														{
															"system": "urn:oid:2.16.578.1.12.4.1.1.9088",
															"code": "1",
															"display": "Døgn"
														}
													]
												}
											},
											{
												"url": "timerange",
												"valueCodeableConcept": {
													"coding": [
														{
															"system": "urn:oid:2.16.578.1.12.4.1.1.8325",
															"code": "1",
															"display": "Morgen"
														}
													]
												}
											},
											{
												"url": "accurate",
												"valueBoolean": false
											}
										],
										"url": "repeatingdosage"
									}
								],
								"url": "ereseptdosing"
							},
							{
								"extension": [
									{
										"url": "recallId",
										"valueString": "8b01439f-41ea-4a24-b601-18ac79d989b8"
									},
									{
										"url": "text",
										"valueString": "Ikke oppgitt"
									},
									{
										"url": "recallcode",
										"valueCodeableConcept": {
											"coding": [
												{
													"system": "urn:oid:2.16.578.1.12.4.1.1.7500",
													"code": "3"
												}
											]
										}
									}
								],
								"url": "recallinfo"
							},
							{
								"extension": [
									{
										"url": "recallStatus",
										"valueBoolean": true
									},
									{
										"url": "status",
										"valueCodeableConcept": {
											"coding": [
												{
													"system": "urn:oid:2.16.578.1.12.4.1.1.7408",
													"code": "T",
													"display": "Tilbakekalt"
												}
											]
										}
									}
								],
								"url": "rfstatus"
							}
						],
						"url": "http://ehelse.no/fhir/StructureDefinition/sfm-reseptamendment"
					},
					{
						"extension": [
							{
								"url": "status",
								"valueCodeableConcept": {
									"coding": [
										{
											"system": "http://ehelse.no/fhir/CodeSystem/sfm-medicationstatement-registration-status",
											"code": "3",
											"display": "Godkjent"
										}
									]
								}
							},
							{
								"url": "type",
								"valueCodeableConcept": {
									"coding": [
										{
											"system": "http://ehelse.no/fhir/CodeSystem/sfm-performer-roles",
											"code": "1",
											"display": "Forskrevet av"
										}
									]
								}
							},
							{
								"url": "helseperson",
								"valueReference": {
									"reference": "urn:uuid:1530821445"
								}
							},
							{
								"url": "timestamp",
								"valueDateTime": "2020-04-15T12:05:54.9916282+02:00"
							}
						],
						"url": "http://ehelse.no/fhir/StructureDefinition/sfm-regInfo"
					}
				],
				"identifier": [
					{
						"use": "usual",
						"type": {
							"text": "PLL"
						},
						"value": "5b7e52c6-b257-4e13-870d-18d4ff9ec663"
					},
					{
						"use": "usual",
						"type": {
							"text": "ReseptId"
						},
						"value": "8b01439f-41ea-4a24-b601-18ac79d989b8"
					}
				],
				"status": "active",
				"medicationReference": {
					"reference": "urn:uuid:6270924"
				},
				"subject": {
					"reference": "urn:uuid:0d2accdb-d01f-4889-b262-216384a490f3",
					"display": "sfm-Patient"
				},
				"dosage": [
					{
						"extension": [
							{
								"extension": [
									{
										"url": "text",
										"valueString": "MOT SPISERØRSSYKDOM"
									}
								],
								"url": "http://example.org/fhir/StructureDefinition/sfm-application-area"
							},
							{
								"url": "http://ehelse.no/fhir/StructureDefinition/sfm-shortdosage",
								"valueCodeableConcept": {
									"coding": [
										{
											"system": "urn:oid:2.16.578.1.12.4.1.1.7478",
											"code": "93",
											"display": "1 daglig"
										}
									]
								}
							},
							{
								"url": "http://ehelse.no/fhir/StructureDefinition/sfm-use",
								"valueCodeableConcept": {
									"coding": [
										{
											"system": "urn:oid:2.16.578.1.12.4.1.1.9101",
											"code": "1",
											"display": "Fast"
										}
									]
								}
							}
						],
						"sequence": 1,
						"text": "1 tablett daglig"
					}
				]
			}
		},
		{
			"fullUrl": "urn:uuid:57008324",
			"resource": {
				"resourceType": "Medication",
				"id": "57008324",
				"meta": {
					"profile": [
						"http://ehelse.no/fhir/StructureDefinition/sfm-Medication"
					]
				},
				"extension": [
					{
						"extension": [
							{
								"url": "prescriptiongroup",
								"valueCodeableConcept": {
									"coding": [
										{
											"system": "urn:oid:2.16.578.1.12.4.1.1.7421",
											"code": "F",
											"display": "Reseptgruppe F"
										}
									]
								}
							}
						],
						"url": "http://hl7.no/fhir/StructureDefinition/no-basis-prescriptiongroup"
					}
				],
				"identifier": [
					{
						"use": "official",
						"type": {
							"text": "identifier"
						},
						"value": "023053"
					}
				],
				"code": {
					"coding": [
						{
							"system": "http://ehelse.no/fhir/CodeSystem/FEST",
							"code": "023053",
							"display": "Zyrtec Tab 10 mg"
						},
						{
							"system": "http://www.whocc.no/atc",
							"code": "R06AE07",
							"display": "Cetirizin"
						}
					]
				},
				"status": "active",
				"form": {
					"coding": [
						{
							"system": "urn:oid:2.16.578.1.12.4.1.1.7448",
							"code": "53",
							"display": "Tablett"
						}
					]
				}
			}
		},
		{
			"fullUrl": "urn:uuid:d070b125-118b-494f-8101-424110982479",
			"resource": {
				"resourceType": "MedicationStatement",
				"id": "d070b125-118b-494f-8101-424110982479",
				"extension": [
					{
						"extension": [
							{
								"url": "reseptDate",
								"valueDate": "2020-05-05"
							},
							{
								"url": "expirationdate",
								"valueDate": "2021-05-05"
							},
							{
								"url": "festUpdate",
								"valueDateTime": "2020-03-25T12:55:05+01:00"
							},
							{
								"url": "dssn",
								"valueString": "1 tablett daglig"
							},
							{
								"url": "lockedResept",
								"valueBoolean": false
							},
							{
								"url": "amount",
								"valueQuantity": {
									"value": 1.0,
									"unit": "stk",
									"system": "http://unitsofmeasure.org",
									"code": "stk"
								}
							},
							{
								"url": "numberofpackages",
								"valueDecimal": 1.0
							},
							{
								"url": "reit",
								"valueString": "0"
							},
							{
								"url": "itemgroup",
								"valueCodeableConcept": {
									"coding": [
										{
											"system": "urn:oid:2.16.578.1.12.4.1.1.7402",
											"code": "L",
											"display": "Legemiddel"
										}
									]
								}
							},
							{
								"extension": [
									{
										"url": "starttime",
										"valueDateTime": "2020-05-05T02:00:00+02:00"
									},
									{
										"extension": [
											{
												"url": "amount",
												"valueQuantity": {
													"value": 1.0,
													"unit": "tablett",
													"system": "http://unitsofmeasure.org",
													"code": "tablett"
												}
											},
											{
												"url": "interval",
												"valueCodeableConcept": {
													"coding": [
														{
															"system": "urn:oid:2.16.578.1.12.4.1.1.9088",
															"code": "1",
															"display": "Døgn"
														}
													]
												}
											},
											{
												"url": "timerange",
												"valueCodeableConcept": {
													"coding": [
														{
															"system": "urn:oid:2.16.578.1.12.4.1.1.8325",
															"code": "1",
															"display": "Morgen"
														}
													]
												}
											},
											{
												"url": "accurate",
												"valueBoolean": false
											}
										],
										"url": "repeatingdosage"
									}
								],
								"url": "ereseptdosing"
							},
							{
								"extension": [
									{
										"url": "recallId",
										"valueString": "c0284e75-665e-48cf-b600-18d4d9ea4dce"
									},
									{
										"url": "text",
										"valueString": "Ikke oppgitt"
									},
									{
										"url": "recallcode",
										"valueCodeableConcept": {
											"coding": [
												{
													"system": "urn:oid:2.16.578.1.12.4.1.1.7500",
													"code": "2"
												}
											]
										}
									}
								],
								"url": "recallinfo"
							},
							{
								"extension": [
									{
										"url": "recallStatus",
										"valueBoolean": true
									},
									{
										"url": "status",
										"valueCodeableConcept": {
											"coding": [
												{
													"system": "urn:oid:2.16.578.1.12.4.1.1.7408",
													"code": "T",
													"display": "Tilbakekalt"
												}
											]
										}
									}
								],
								"url": "rfstatus"
							}
						],
						"url": "http://ehelse.no/fhir/StructureDefinition/sfm-reseptamendment"
					},
					{
						"extension": [
							{
								"url": "status",
								"valueCodeableConcept": {
									"coding": [
										{
											"system": "http://ehelse.no/fhir/CodeSystem/sfm-medicationstatement-registration-status",
											"code": "3",
											"display": "Godkjent"
										}
									]
								}
							},
							{
								"url": "type",
								"valueCodeableConcept": {
									"coding": [
										{
											"system": "http://ehelse.no/fhir/CodeSystem/sfm-performer-roles",
											"code": "1",
											"display": "Forskrevet av"
										}
									]
								}
							},
							{
								"url": "helseperson",
								"valueReference": {
									"reference": "urn:uuid:1530821445"
								}
							},
							{
								"url": "timestamp",
								"valueDateTime": "2020-05-05T08:29:56.4982249+02:00"
							}
						],
						"url": "http://ehelse.no/fhir/StructureDefinition/sfm-regInfo"
					}
				],
				"identifier": [
					{
						"use": "usual",
						"type": {
							"text": "ReseptId"
						},
						"value": "c0284e75-665e-48cf-b600-18d4d9ea4dce"
					}
				],
				"status": "active",
				"medicationReference": {
					"reference": "urn:uuid:57008324"
				},
				"subject": {
					"reference": "urn:uuid:0d2accdb-d01f-4889-b262-216384a490f3",
					"display": "sfm-Patient"
				},
				"dosage": [
					{
						"extension": [
							{
								"extension": [
									{
										"url": "text",
										"valueString": "ALLERGIMEDISIN"
									}
								],
								"url": "http://example.org/fhir/StructureDefinition/sfm-application-area"
							},
							{
								"url": "http://ehelse.no/fhir/StructureDefinition/sfm-shortdosage",
								"valueCodeableConcept": {
									"coding": [
										{
											"system": "urn:oid:2.16.578.1.12.4.1.1.7478",
											"code": "93",
											"display": "1 daglig"
										}
									]
								}
							},
							{
								"url": "http://ehelse.no/fhir/StructureDefinition/sfm-use",
								"valueCodeableConcept": {
									"coding": [
										{
											"system": "urn:oid:2.16.578.1.12.4.1.1.9101",
											"code": "3",
											"display": "Ved behov"
										}
									]
								}
							}
						],
						"sequence": 1,
						"text": "1 tablett daglig"
					}
				]
			}
		},
		{
			"fullUrl": "urn:uuid:13071104",
			"resource": {
				"resourceType": "Medication",
				"id": "13071104",
				"meta": {
					"profile": [
						"http://ehelse.no/fhir/StructureDefinition/sfm-Medication"
					]
				},
				"extension": [
					{
						"extension": [
							{
								"url": "prescriptiongroup",
								"valueCodeableConcept": {
									"coding": [
										{
											"system": "urn:oid:2.16.578.1.12.4.1.1.7421",
											"code": "F",
											"display": "Reseptgruppe F"
										}
									]
								}
							}
						],
						"url": "http://hl7.no/fhir/StructureDefinition/no-basis-prescriptiongroup"
					}
				],
				"identifier": [
					{
						"use": "official",
						"type": {
							"text": "identifier"
						},
						"value": "023053"
					}
				],
				"code": {
					"coding": [
						{
							"system": "http://ehelse.no/fhir/CodeSystem/FEST",
							"code": "023053",
							"display": "Zyrtec Tab 10 mg"
						},
						{
							"system": "http://www.whocc.no/atc",
							"code": "R06AE07",
							"display": "Cetirizin"
						}
					]
				},
				"status": "active",
				"form": {
					"coding": [
						{
							"system": "urn:oid:2.16.578.1.12.4.1.1.7448",
							"code": "53",
							"display": "Tablett"
						}
					]
				}
			}
		},
		{
			"fullUrl": "urn:uuid:a28d0e43-49d5-41ec-bab1-b033fcd8a372",
			"resource": {
				"resourceType": "MedicationStatement",
				"id": "a28d0e43-49d5-41ec-bab1-b033fcd8a372",
				"extension": [
					{
						"extension": [
							{
								"url": "reseptDate",
								"valueDate": "2020-05-05"
							},
							{
								"url": "expirationdate",
								"valueDate": "2021-05-05"
							},
							{
								"url": "festUpdate",
								"valueDateTime": "2020-04-24T09:44:30+02:00"
							},
							{
								"url": "dssn",
								"valueString": "1 tablett daglig"
							},
							{
								"url": "lockedResept",
								"valueBoolean": false
							},
							{
								"url": "numberofpackages",
								"valueDecimal": 1.0
							},
							{
								"url": "reit",
								"valueString": "0"
							},
							{
								"url": "speciality",
								"valueCodeableConcept": {
									"coding": [
										{
											"system": "urn:oid:2.16.578.1.12.4.1.1.7426",
											"code": "190",
											"display": "Indremedisin"
										}
									]
								}
							},
							{
								"url": "itemgroup",
								"valueCodeableConcept": {
									"coding": [
										{
											"system": "urn:oid:2.16.578.1.12.4.1.1.7402",
											"code": "L",
											"display": "Legemiddel"
										}
									]
								}
							},
							{
								"extension": [
									{
										"url": "starttime",
										"valueDateTime": "2020-05-05T02:00:00+02:00"
									},
									{
										"extension": [
											{
												"url": "amount",
												"valueQuantity": {
													"value": 1.0,
													"unit": "tablett",
													"system": "http://unitsofmeasure.org",
													"code": "tablett"
												}
											},
											{
												"url": "interval",
												"valueCodeableConcept": {
													"coding": [
														{
															"system": "urn:oid:2.16.578.1.12.4.1.1.9088",
															"code": "1",
															"display": "Døgn"
														}
													]
												}
											},
											{
												"url": "timerange",
												"valueCodeableConcept": {
													"coding": [
														{
															"system": "urn:oid:2.16.578.1.12.4.1.1.8325",
															"code": "1",
															"display": "Morgen"
														}
													]
												}
											},
											{
												"url": "accurate",
												"valueBoolean": false
											}
										],
										"url": "repeatingdosage"
									}
								],
								"url": "ereseptdosing"
							},
							{
								"extension": [
									{
										"url": "recallId",
										"valueString": "e1c68b5a-7e14-4ee9-b853-18d501d6f8a9"
									},
									{
										"url": "text",
										"valueString": "Ikke oppgitt"
									},
									{
										"url": "recallcode",
										"valueCodeableConcept": {
											"coding": [
												{
													"system": "urn:oid:2.16.578.1.12.4.1.1.7500",
													"code": "1"
												}
											]
										}
									}
								],
								"url": "recallinfo"
							},
							{
								"extension": [
									{
										"url": "recallStatus",
										"valueBoolean": true
									},
									{
										"url": "status",
										"valueCodeableConcept": {
											"coding": [
												{
													"system": "urn:oid:2.16.578.1.12.4.1.1.7408",
													"code": "T",
													"display": "Tilbakekalt"
												}
											]
										}
									}
								],
								"url": "rfstatus"
							}
						],
						"url": "http://ehelse.no/fhir/StructureDefinition/sfm-reseptamendment"
					},
					{
						"extension": [
							{
								"url": "status",
								"valueCodeableConcept": {
									"coding": [
										{
											"system": "http://ehelse.no/fhir/CodeSystem/sfm-medicationstatement-registration-status",
											"code": "3",
											"display": "Godkjent"
										}
									]
								}
							},
							{
								"url": "type",
								"valueCodeableConcept": {
									"coding": [
										{
											"system": "http://ehelse.no/fhir/CodeSystem/sfm-performer-roles",
											"code": "1",
											"display": "Forskrevet av"
										}
									]
								}
							},
							{
								"url": "helseperson",
								"valueReference": {
									"reference": "urn:uuid:1402057795"
								}
							},
							{
								"url": "timestamp",
								"valueDateTime": "2020-05-05T08:20:21.0831288+02:00"
							}
						],
						"url": "http://ehelse.no/fhir/StructureDefinition/sfm-regInfo"
					}
				],
				"identifier": [
					{
						"use": "usual",
						"type": {
							"text": "PLL"
						},
						"value": "9473ceb7-759a-4f59-8d67-18d501c73e40"
					},
					{
						"use": "usual",
						"type": {
							"text": "ReseptId"
						},
						"value": "e1c68b5a-7e14-4ee9-b853-18d501d6f8a9"
					}
				],
				"status": "active",
				"medicationReference": {
					"reference": "urn:uuid:13071104"
				},
				"subject": {
					"reference": "urn:uuid:0d2accdb-d01f-4889-b262-216384a490f3",
					"display": "sfm-Patient"
				},
				"dosage": [
					{
						"extension": [
							{
								"extension": [
									{
										"url": "text",
										"valueString": "ALLERGIMEDISIN"
									}
								],
								"url": "http://example.org/fhir/StructureDefinition/sfm-application-area"
							},
							{
								"url": "http://ehelse.no/fhir/StructureDefinition/sfm-shortdosage",
								"valueCodeableConcept": {
									"coding": [
										{
											"system": "urn:oid:2.16.578.1.12.4.1.1.7478",
											"code": "93",
											"display": "1 daglig"
										}
									]
								}
							},
							{
								"url": "http://ehelse.no/fhir/StructureDefinition/sfm-use",
								"valueCodeableConcept": {
									"coding": [
										{
											"system": "urn:oid:2.16.578.1.12.4.1.1.9101",
											"code": "3",
											"display": "Ved behov"
										}
									]
								}
							}
						],
						"sequence": 1,
						"text": "1 tablett daglig"
					}
				]
			}
		},
		{
			"fullUrl": "urn:uuid:22897276",
			"resource": {
				"resourceType": "Medication",
				"id": "22897276",
				"meta": {
					"profile": [
						"http://ehelse.no/fhir/StructureDefinition/sfm-Medication"
					]
				},
				"extension": [
					{
						"extension": [
							{
								"url": "prescriptiongroup",
								"valueCodeableConcept": {
									"coding": [
										{
											"system": "urn:oid:2.16.578.1.12.4.1.1.7421",
											"code": "C",
											"display": "Reseptgruppe C"
										}
									]
								}
							}
						],
						"url": "http://hl7.no/fhir/StructureDefinition/no-basis-prescriptiongroup"
					},
					{
						"extension": [
							{
								"url": "maycrush",
								"valueCodeableConcept": {
									"coding": [
										{
											"system": "urn:oid:2.16.578.1.12.4.1.1.1103",
											"code": "9",
											"display": "Ukjent"
										}
									]
								}
							},
							{
								"url": "administrationway",
								"valueCodeableConcept": {
									"coding": [
										{
											"system": "urn:oid:2.16.578.1.12.4.1.1.7477",
											"code": "Oral bruk"
										}
									]
								}
							},
							{
								"url": "name",
								"valueString": "Paracetamol/Acetylsalisylsyre/Koffein Tab 250 mg/250 mg/50 mg"
							}
						],
						"url": "http://ehelse.no/fhir/StructureDefinition/sfm-medicationdetails"
					}
				],
				"identifier": [
					{
						"use": "official",
						"type": {
							"text": "identifier"
						},
						"value": "ID_1B45A541-BADA-437D-98DF-2F49697E6915"
					}
				],
				"code": {
					"coding": [
						{
							"system": "http://ehelse.no/fhir/CodeSystem/FEST",
							"code": "ID_1B45A541-BADA-437D-98DF-2F49697E6915",
							"display": "Paracetamol/Acetylsalisylsyre/Koffein Tab 250 mg/250 mg/50 mg"
						},
						{
							"system": "http://www.whocc.no/atc",
							"code": "N02BE51",
							"display": "Paracetamol, kombinasjoner ekskl. psykoleptika"
						}
					]
				},
				"status": "active",
				"form": {
					"coding": [
						{
							"system": "urn:oid:2.16.578.1.12.4.1.1.7448",
							"code": "53",
							"display": "Tablett"
						}
					]
				}
			}
		},
		{
			"fullUrl": "urn:uuid:7b8f8b1d-3565-4900-bc97-c544c35cf620",
			"resource": {
				"resourceType": "MedicationStatement",
				"id": "7b8f8b1d-3565-4900-bc97-c544c35cf620",
				"extension": [
					{
						"extension": [
							{
								"url": "reseptDate",
								"valueDate": "2020-04-15"
							},
							{
								"url": "expirationdate",
								"valueDate": "2021-04-15"
							},
							{
								"url": "festUpdate",
								"valueDateTime": "2020-03-09T10:31:53+01:00"
							},
							{
								"url": "dssn",
								"valueString": "1 tablett morgen 1 tablett midt på dagen 1 tablett kveld"
							},
							{
								"url": "lockedResept",
								"valueBoolean": false
							},
							{
								"url": "amount",
								"valueQuantity": {
									"value": 20.0,
									"unit": "stk",
									"system": "http://unitsofmeasure.org",
									"code": "stk"
								}
							},
							{
								"url": "reit",
								"valueString": "0"
							},
							{
								"url": "itemgroup",
								"valueCodeableConcept": {
									"coding": [
										{
											"system": "urn:oid:2.16.578.1.12.4.1.1.7402",
											"code": "L",
											"display": "Legemiddel"
										}
									]
								}
							},
							{
								"extension": [
									{
										"url": "starttime",
										"valueDateTime": "2020-04-15T02:00:00+02:00"
									},
									{
										"extension": [
											{
												"url": "amount",
												"valueQuantity": {
													"value": 1.0,
													"unit": "ampulle",
													"system": "http://unitsofmeasure.org",
													"code": "ampulle"
												}
											},
											{
												"url": "interval",
												"valueCodeableConcept": {
													"coding": [
														{
															"system": "urn:oid:2.16.578.1.12.4.1.1.9088",
															"code": "1",
															"display": "Døgn"
														}
													]
												}
											},
											{
												"url": "timerange",
												"valueCodeableConcept": {
													"coding": [
														{
															"system": "urn:oid:2.16.578.1.12.4.1.1.8325",
															"code": "1",
															"display": "Morgen"
														}
													]
												}
											},
											{
												"url": "accurate",
												"valueBoolean": false
											}
										],
										"url": "repeatingdosage"
									},
									{
										"extension": [
											{
												"url": "amount",
												"valueQuantity": {
													"value": 1.0,
													"unit": "ampulle",
													"system": "http://unitsofmeasure.org",
													"code": "ampulle"
												}
											},
											{
												"url": "interval",
												"valueCodeableConcept": {
													"coding": [
														{
															"system": "urn:oid:2.16.578.1.12.4.1.1.9088",
															"code": "1",
															"display": "Døgn"
														}
													]
												}
											},
											{
												"url": "timerange",
												"valueCodeableConcept": {
													"coding": [
														{
															"system": "urn:oid:2.16.578.1.12.4.1.1.8325",
															"code": "3",
															"display": "Midt på dagen"
														}
													]
												}
											},
											{
												"url": "accurate",
												"valueBoolean": false
											}
										],
										"url": "repeatingdosage"
									},
									{
										"extension": [
											{
												"url": "amount",
												"valueQuantity": {
													"value": 1.0,
													"unit": "ampulle",
													"system": "http://unitsofmeasure.org",
													"code": "ampulle"
												}
											},
											{
												"url": "interval",
												"valueCodeableConcept": {
													"coding": [
														{
															"system": "urn:oid:2.16.578.1.12.4.1.1.9088",
															"code": "1",
															"display": "Døgn"
														}
													]
												}
											},
											{
												"url": "timerange",
												"valueCodeableConcept": {
													"coding": [
														{
															"system": "urn:oid:2.16.578.1.12.4.1.1.8325",
															"code": "5",
															"display": "Kveld"
														}
													]
												}
											},
											{
												"url": "accurate",
												"valueBoolean": false
											}
										],
										"url": "repeatingdosage"
									}
								],
								"url": "ereseptdosing"
							},
							{
								"extension": [
									{
										"url": "recallId",
										"valueString": "c7d0af88-4814-460c-8143-18ac77002152"
									},
									{
										"url": "text",
										"valueString": "Ikke oppgitt"
									},
									{
										"url": "recallcode",
										"valueCodeableConcept": {
											"coding": [
												{
													"system": "urn:oid:2.16.578.1.12.4.1.1.7500",
													"code": "3"
												}
											]
										}
									}
								],
								"url": "recallinfo"
							},
							{
								"extension": [
									{
										"url": "recallStatus",
										"valueBoolean": true
									},
									{
										"url": "status",
										"valueCodeableConcept": {
											"coding": [
												{
													"system": "urn:oid:2.16.578.1.12.4.1.1.7408",
													"code": "T",
													"display": "Tilbakekalt"
												}
											]
										}
									}
								],
								"url": "rfstatus"
							}
						],
						"url": "http://ehelse.no/fhir/StructureDefinition/sfm-reseptamendment"
					},
					{
						"extension": [
							{
								"url": "status",
								"valueCodeableConcept": {
									"coding": [
										{
											"system": "http://ehelse.no/fhir/CodeSystem/sfm-medicationstatement-registration-status",
											"code": "3",
											"display": "Godkjent"
										}
									]
								}
							},
							{
								"url": "type",
								"valueCodeableConcept": {
									"coding": [
										{
											"system": "http://ehelse.no/fhir/CodeSystem/sfm-performer-roles",
											"code": "1",
											"display": "Forskrevet av"
										}
									]
								}
							},
							{
								"url": "helseperson",
								"valueReference": {
									"reference": "urn:uuid:1530821445"
								}
							},
							{
								"url": "timestamp",
								"valueDateTime": "2020-04-15T11:58:02.2217359+02:00"
							}
						],
						"url": "http://ehelse.no/fhir/StructureDefinition/sfm-regInfo"
					}
				],
				"identifier": [
					{
						"use": "usual",
						"type": {
							"text": "ReseptId"
						},
						"value": "c7d0af88-4814-460c-8143-18ac77002152"
					}
				],
				"status": "active",
				"medicationReference": {
					"reference": "urn:uuid:22897276"
				},
				"subject": {
					"reference": "urn:uuid:0d2accdb-d01f-4889-b262-216384a490f3",
					"display": "sfm-Patient"
				},
				"dosage": [
					{
						"extension": [
							{
								"extension": [
									{
										"url": "text",
										"valueString": "MOT SMERTER"
									}
								],
								"url": "http://example.org/fhir/StructureDefinition/sfm-application-area"
							},
							{
								"url": "http://ehelse.no/fhir/StructureDefinition/sfm-shortdosage",
								"valueCodeableConcept": {
									"coding": [
										{
											"system": "urn:oid:2.16.578.1.12.4.1.1.7478",
											"code": "216",
											"display": "1+1+1"
										}
									]
								}
							},
							{
								"url": "http://ehelse.no/fhir/StructureDefinition/sfm-use",
								"valueCodeableConcept": {
									"coding": [
										{
											"system": "urn:oid:2.16.578.1.12.4.1.1.9101",
											"code": "3",
											"display": "Ved behov"
										}
									]
								}
							}
						],
						"sequence": 1,
						"text": "1 tablett morgen 1 tablett midt på dagen 1 tablett kveld"
					}
				]
			}
		},
		{
			"fullUrl": "urn:uuid:44900022",
			"resource": {
				"resourceType": "Medication",
				"id": "44900022",
				"meta": {
					"profile": [
						"http://ehelse.no/fhir/StructureDefinition/sfm-Medication"
					]
				},
				"extension": [
					{
						"extension": [
							{
								"url": "prescriptiongroup",
								"valueCodeableConcept": {
									"coding": [
										{
											"system": "urn:oid:2.16.578.1.12.4.1.1.7421",
											"code": "C",
											"display": "Reseptgruppe C"
										}
									]
								}
							}
						],
						"url": "http://hl7.no/fhir/StructureDefinition/no-basis-prescriptiongroup"
					},
					{
						"extension": [
							{
								"url": "administrationway",
								"valueCodeableConcept": {
									"coding": [
										{
											"system": "urn:oid:2.16.578.1.12.4.1.1.7477",
											"code": "Oral bruk"
										}
									]
								}
							},
							{
								"url": "name",
								"valueString": "Esomeprazol Enterogran til mikst 10 mg"
							}
						],
						"url": "http://ehelse.no/fhir/StructureDefinition/sfm-medicationdetails"
					}
				],
				"identifier": [
					{
						"use": "official",
						"type": {
							"text": "identifier"
						},
						"value": "ID_EA7352DE-2DC9-4F5F-B028-FA802B02E51F"
					}
				],
				"code": {
					"coding": [
						{
							"system": "http://ehelse.no/fhir/CodeSystem/FEST",
							"code": "ID_EA7352DE-2DC9-4F5F-B028-FA802B02E51F",
							"display": "Esomeprazol Enterogran til mikst 10 mg"
						},
						{
							"system": "http://www.whocc.no/atc",
							"code": "A02BC05",
							"display": "Esomeprazol"
						}
					]
				},
				"status": "active",
				"form": {
					"coding": [
						{
							"system": "urn:oid:2.16.578.1.12.4.1.1.7448",
							"code": "398",
							"display": "Enterogranulat til mikstur"
						}
					]
				}
			}
		},
		{
			"fullUrl": "urn:uuid:40182083",
			"resource": {
				"resourceType": "Medication",
				"id": "40182083",
				"meta": {
					"profile": [
						"http://ehelse.no/fhir/StructureDefinition/sfm-Medication"
					]
				},
				"extension": [
					{
						"extension": [
							{
								"url": "prescriptiongroup",
								"valueCodeableConcept": {
									"coding": [
										{
											"system": "urn:oid:2.16.578.1.12.4.1.1.7421",
											"code": "C",
											"display": "Reseptgruppe C"
										}
									]
								}
							}
						],
						"url": "http://hl7.no/fhir/StructureDefinition/no-basis-prescriptiongroup"
					},
					{
						"extension": [
							{
								"url": "administrationway",
								"valueCodeableConcept": {
									"coding": [
										{
											"system": "urn:oid:2.16.578.1.12.4.1.1.7477",
											"code": "Oral bruk"
										}
									]
								}
							},
							{
								"url": "name",
								"valueString": "Esomeprazol Enterogran til mikst 10 mg"
							}
						],
						"url": "http://ehelse.no/fhir/StructureDefinition/sfm-medicationdetails"
					}
				],
				"identifier": [
					{
						"use": "official",
						"type": {
							"text": "identifier"
						},
						"value": "ID_EA7352DE-2DC9-4F5F-B028-FA802B02E51F"
					}
				],
				"code": {
					"coding": [
						{
							"system": "http://ehelse.no/fhir/CodeSystem/FEST",
							"code": "ID_EA7352DE-2DC9-4F5F-B028-FA802B02E51F",
							"display": "Esomeprazol Enterogran til mikst 10 mg"
						},
						{
							"system": "http://www.whocc.no/atc",
							"code": "A02BC05",
							"display": "Esomeprazol"
						}
					]
				},
				"status": "active",
				"form": {
					"coding": [
						{
							"system": "urn:oid:2.16.578.1.12.4.1.1.7448",
							"code": "398",
							"display": "Enterogranulat til mikstur"
						}
					]
				}
			}
		},
		{
			"fullUrl": "urn:uuid:78babc53-1d61-4104-a8c3-fbbf9ca4d492",
			"resource": {
				"resourceType": "MedicationStatement",
				"id": "78babc53-1d61-4104-a8c3-fbbf9ca4d492",
				"extension": [
					{
						"extension": [
							{
								"url": "reseptDate",
								"valueDate": "2020-04-15"
							},
							{
								"url": "expirationdate",
								"valueDate": "2021-04-14"
							},
							{
								"url": "festUpdate",
								"valueDateTime": "2020-03-09T10:31:53+01:00"
							},
							{
								"url": "dssn",
								"valueString": "1 daglig Røres ut i 15 ml vann og svelges"
							},
							{
								"url": "lockedResept",
								"valueBoolean": false
							},
							{
								"url": "amount",
								"valueQuantity": {
									"value": 92.0,
									"unit": "stk",
									"system": "http://unitsofmeasure.org",
									"code": "stk"
								}
							},
							{
								"url": "reit",
								"valueString": "3"
							},
							{
								"url": "itemgroup",
								"valueCodeableConcept": {
									"coding": [
										{
											"system": "urn:oid:2.16.578.1.12.4.1.1.7402",
											"code": "L",
											"display": "Legemiddel"
										}
									]
								}
							},
							{
								"extension": [
									{
										"url": "recallId",
										"valueString": "02f132ad-e6f3-4802-86f7-18ac7d993fcb"
									},
									{
										"url": "text",
										"valueString": "Ikke oppgitt"
									},
									{
										"url": "recallcode",
										"valueCodeableConcept": {
											"coding": [
												{
													"system": "urn:oid:2.16.578.1.12.4.1.1.7500",
													"code": "3"
												}
											]
										}
									}
								],
								"url": "recallinfo"
							},
							{
								"extension": [
									{
										"url": "recallStatus",
										"valueBoolean": true
									},
									{
										"url": "status",
										"valueCodeableConcept": {
											"coding": [
												{
													"system": "urn:oid:2.16.578.1.12.4.1.1.7408",
													"code": "T",
													"display": "Tilbakekalt"
												}
											]
										}
									}
								],
								"url": "rfstatus"
							}
						],
						"url": "http://ehelse.no/fhir/StructureDefinition/sfm-reseptamendment"
					},
					{
						"extension": [
							{
								"url": "status",
								"valueCodeableConcept": {
									"coding": [
										{
											"system": "http://ehelse.no/fhir/CodeSystem/sfm-medicationstatement-registration-status",
											"code": "3",
											"display": "Godkjent"
										}
									]
								}
							},
							{
								"url": "type",
								"valueCodeableConcept": {
									"coding": [
										{
											"system": "http://ehelse.no/fhir/CodeSystem/sfm-performer-roles",
											"code": "1",
											"display": "Forskrevet av"
										}
									]
								}
							},
							{
								"url": "helseperson",
								"valueReference": {
									"reference": "urn:uuid:1530821445"
								}
							},
							{
								"url": "timestamp",
								"valueDateTime": "2020-04-15T12:16:17.0340431+02:00"
							}
						],
						"url": "http://ehelse.no/fhir/StructureDefinition/sfm-regInfo"
					}
				],
				"identifier": [
					{
						"use": "usual",
						"type": {
							"text": "ReseptId"
						},
						"value": "02f132ad-e6f3-4802-86f7-18ac7d993fcb"
					}
				],
				"partOf": [
					{
						"reference": "urn:uuid:4a70798d-ad3e-4683-a9e1-a08a449936a3",
						"display": "MedicationStatement"
					}
				],
				"status": "completed",
				"medicationReference": {
					"reference": "urn:uuid:40182083"
				},
				"subject": {
					"reference": "urn:uuid:0d2accdb-d01f-4889-b262-216384a490f3",
					"display": "sfm-Patient"
				},
				"dosage": [
					{
						"extension": [
							{
								"extension": [
									{
										"url": "text",
										"valueString": "MOT SPISERØRSSYKDOM"
									}
								],
								"url": "http://example.org/fhir/StructureDefinition/sfm-application-area"
							},
							{
								"url": "http://ehelse.no/fhir/StructureDefinition/sfm-shortdosage",
								"valueCodeableConcept": {
									"coding": [
										{
											"system": "urn:oid:2.16.578.1.12.4.1.1.7478",
											"code": "5343",
											"display": "1 daglig Røres ut i 15 ml vann og svelges"
										}
									]
								}
							},
							{
								"url": "http://ehelse.no/fhir/StructureDefinition/sfm-use",
								"valueCodeableConcept": {
									"coding": [
										{
											"system": "urn:oid:2.16.578.1.12.4.1.1.9101",
											"code": "1",
											"display": "Fast"
										}
									]
								}
							}
						],
						"sequence": 1,
						"text": "1 daglig Røres ut i 15 ml vann og svelges"
					}
				]
			}
		},
		{
			"fullUrl": "urn:uuid:4a70798d-ad3e-4683-a9e1-a08a449936a3",
			"resource": {
				"resourceType": "MedicationStatement",
				"id": "4a70798d-ad3e-4683-a9e1-a08a449936a3",
				"extension": [
					{
						"extension": [
							{
								"url": "reseptDate",
								"valueDate": "2020-05-05"
							},
							{
								"url": "expirationdate",
								"valueDate": "2021-05-05"
							},
							{
								"url": "festUpdate",
								"valueDateTime": "2020-04-24T09:44:30+02:00"
							},
							{
								"url": "dssn",
								"valueString": "2 poser daglig. Røres ut i 30 ml vann og svelges"
							},
							{
								"url": "lockedResept",
								"valueBoolean": false
							},
							{
								"url": "amount",
								"valueQuantity": {
									"value": 92.0,
									"unit": "stk",
									"system": "http://unitsofmeasure.org",
									"code": "stk"
								}
							},
							{
								"url": "reit",
								"valueString": "3"
							},
							{
								"url": "speciality",
								"valueCodeableConcept": {
									"coding": [
										{
											"system": "urn:oid:2.16.578.1.12.4.1.1.7426",
											"code": "190",
											"display": "Indremedisin"
										}
									]
								}
							},
							{
								"url": "itemgroup",
								"valueCodeableConcept": {
									"coding": [
										{
											"system": "urn:oid:2.16.578.1.12.4.1.1.7402",
											"code": "L",
											"display": "Legemiddel"
										}
									]
								}
							},
							{
								"extension": [
									{
										"url": "recallStatus",
										"valueBoolean": false
									},
									{
										"url": "status",
										"valueCodeableConcept": {
											"coding": [
												{
													"system": "urn:oid:2.16.578.1.12.4.1.1.7408",
													"code": "E",
													"display": "Ekspederbar"
												}
											]
										}
									}
								],
								"url": "rfstatus"
							}
						],
						"url": "http://ehelse.no/fhir/StructureDefinition/sfm-reseptamendment"
					},
					{
						"extension": [
							{
								"url": "status",
								"valueCodeableConcept": {
									"coding": [
										{
											"system": "http://ehelse.no/fhir/CodeSystem/sfm-medicationstatement-registration-status",
											"code": "3",
											"display": "Godkjent"
										}
									]
								}
							},
							{
								"url": "type",
								"valueCodeableConcept": {
									"coding": [
										{
											"system": "http://ehelse.no/fhir/CodeSystem/sfm-performer-roles",
											"code": "1",
											"display": "Forskrevet av"
										}
									]
								}
							},
							{
								"url": "helseperson",
								"valueReference": {
									"reference": "urn:uuid:1402057795"
								}
							},
							{
								"url": "timestamp",
								"valueDateTime": "2020-05-05T10:38:12.3889658+02:00"
							}
						],
						"url": "http://ehelse.no/fhir/StructureDefinition/sfm-regInfo"
					}
				],
				"identifier": [
					{
						"use": "usual",
						"type": {
							"text": "ReseptId"
						},
						"value": "8118da22-bfc3-48ab-acd0-18d533b04388"
					}
				],
				"status": "active",
				"medicationReference": {
					"reference": "urn:uuid:44900022"
				},
				"subject": {
					"reference": "urn:uuid:0d2accdb-d01f-4889-b262-216384a490f3",
					"display": "sfm-Patient"
				},
				"dosage": [
					{
						"extension": [
							{
								"extension": [
									{
										"url": "text",
										"valueString": "MOT SPISERØRSSYKDOM"
									}
								],
								"url": "http://example.org/fhir/StructureDefinition/sfm-application-area"
							},
							{
								"url": "http://ehelse.no/fhir/StructureDefinition/sfm-shortdosage",
								"valueCodeableConcept": {
									"coding": [
										{
											"system": "urn:oid:2.16.578.1.12.4.1.1.7478",
											"code": "5342",
											"display": "2 daglig Røres ut i 30 ml vann og svelges"
										}
									]
								}
							},
							{
								"url": "http://ehelse.no/fhir/StructureDefinition/sfm-use",
								"valueCodeableConcept": {
									"coding": [
										{
											"system": "urn:oid:2.16.578.1.12.4.1.1.9101",
											"code": "1",
											"display": "Fast"
										}
									]
								}
							}
						],
						"sequence": 1,
						"text": "2 poser daglig. Røres ut i 30 ml vann og svelges"
					}
				]
			}
		},
		{
			"fullUrl": "urn:uuid:137597855",
			"resource": {
				"resourceType": "Practitioner",
				"id": "137597855",
				"identifier": [
					{
						"use": "official",
						"type": {
							"coding": [
								{
									"system": "http://hl7.no/fhir/NamingSystem/HPR",
									"code": "HPR-nummer"
								}
							]
						},
						"system": "urn:oid:2.16.578.1.12.4.1.4.4",
						"value": "001010038"
					}
				]
			}
		},
		{
			"fullUrl": "urn:uuid:12430289",
			"resource": {
				"resourceType": "Medication",
				"id": "12430289",
				"meta": {
					"profile": [
						"http://ehelse.no/fhir/StructureDefinition/sfm-Medication"
					]
				},
				"extension": [
					{
						"extension": [
							{
								"url": "prescriptiongroup",
								"valueCodeableConcept": {
									"coding": [
										{
											"system": "urn:oid:2.16.578.1.12.4.1.1.7421",
											"code": "C",
											"display": "Reseptgruppe C"
										}
									]
								}
							}
						],
						"url": "http://hl7.no/fhir/StructureDefinition/no-basis-prescriptiongroup"
					},
					{
						"extension": [
							{
								"url": "maycrush",
								"valueCodeableConcept": {
									"coding": [
										{
											"system": "urn:oid:2.16.578.1.12.4.1.1.1103",
											"code": "9",
											"display": "Ukjent"
										}
									]
								}
							},
							{
								"url": "administrationway",
								"valueCodeableConcept": {
									"coding": [
										{
											"system": "urn:oid:2.16.578.1.12.4.1.1.7477",
											"code": "Oral bruk"
										}
									]
								}
							},
							{
								"url": "name",
								"valueString": "Sertralin Tab 25 mg"
							}
						],
						"url": "http://ehelse.no/fhir/StructureDefinition/sfm-medicationdetails"
					}
				],
				"identifier": [
					{
						"use": "official",
						"type": {
							"text": "identifier"
						},
						"value": "ID_F9063F6C-9EC8-479D-BBF7-CE9FF06856CA"
					}
				],
				"code": {
					"coding": [
						{
							"system": "http://ehelse.no/fhir/CodeSystem/FEST",
							"code": "ID_F9063F6C-9EC8-479D-BBF7-CE9FF06856CA",
							"display": "Sertralin Tab 25 mg"
						},
						{
							"system": "http://www.whocc.no/atc",
							"code": "N06AB06",
							"display": "Sertralin"
						}
					]
				},
				"status": "active",
				"form": {
					"coding": [
						{
							"system": "urn:oid:2.16.578.1.12.4.1.1.7448",
							"code": "53",
							"display": "Tablett"
						}
					]
				}
			}
		},
		{
			"fullUrl": "urn:uuid:ceca33fd-435f-4184-b8c4-20f0ccfa9799",
			"resource": {
				"resourceType": "MedicationStatement",
				"id": "ceca33fd-435f-4184-b8c4-20f0ccfa9799",
				"extension": [
					{
						"extension": [
							{
								"url": "reseptDate",
								"valueDate": "2020-06-02"
							},
							{
								"url": "expirationdate",
								"valueDate": "2021-06-02"
							},
							{
								"url": "festUpdate",
								"valueDateTime": "2020-04-02T14:12:41+02:00"
							},
							{
								"url": "dssn",
								"valueString": "1 tablett daglig"
							},
							{
								"url": "lockedResept",
								"valueBoolean": false
							},
							{
								"url": "amount",
								"valueQuantity": {
									"value": 92.0,
									"unit": "stk",
									"system": "http://unitsofmeasure.org",
									"code": "stk"
								}
							},
							{
								"url": "reit",
								"valueString": "3"
							},
							{
								"url": "itemgroup",
								"valueCodeableConcept": {
									"coding": [
										{
											"system": "urn:oid:2.16.578.1.12.4.1.1.7402",
											"code": "L",
											"display": "Legemiddel"
										}
									]
								}
							},
							{
								"extension": [
									{
										"url": "starttime",
										"valueDateTime": "2020-06-02T02:00:00+02:00"
									},
									{
										"extension": [
											{
												"url": "amount",
												"valueQuantity": {
													"value": 1.0,
													"unit": "tablett",
													"system": "http://unitsofmeasure.org",
													"code": "tablett"
												}
											},
											{
												"url": "interval",
												"valueCodeableConcept": {
													"coding": [
														{
															"system": "urn:oid:2.16.578.1.12.4.1.1.9088",
															"code": "1",
															"display": "Døgn"
														}
													]
												}
											},
											{
												"url": "timerange",
												"valueCodeableConcept": {
													"coding": [
														{
															"system": "urn:oid:2.16.578.1.12.4.1.1.8325",
															"code": "1",
															"display": "Morgen"
														}
													]
												}
											},
											{
												"url": "accurate",
												"valueBoolean": false
											}
										],
										"url": "repeatingdosage"
									}
								],
								"url": "ereseptdosing"
							},
							{
								"extension": [
									{
										"url": "recallStatus",
										"valueBoolean": false
									},
									{
										"url": "status",
										"valueCodeableConcept": {
											"coding": [
												{
													"system": "urn:oid:2.16.578.1.12.4.1.1.7408",
													"code": "E",
													"display": "Ekspederbar"
												}
											]
										}
									}
								],
								"url": "rfstatus"
							}
						],
						"url": "http://ehelse.no/fhir/StructureDefinition/sfm-reseptamendment"
					},
					{
						"extension": [
							{
								"url": "status",
								"valueCodeableConcept": {
									"coding": [
										{
											"system": "http://ehelse.no/fhir/CodeSystem/sfm-medicationstatement-registration-status",
											"code": "3",
											"display": "Godkjent"
										}
									]
								}
							},
							{
								"url": "type",
								"valueCodeableConcept": {
									"coding": [
										{
											"system": "http://ehelse.no/fhir/CodeSystem/sfm-performer-roles",
											"code": "1",
											"display": "Forskrevet av"
										}
									]
								}
							},
							{
								"url": "helseperson",
								"valueReference": {
									"reference": "urn:uuid:137597855"
								}
							},
							{
								"url": "timestamp",
								"valueDateTime": "2020-06-02T12:04:40.4894015+02:00"
							}
						],
						"url": "http://ehelse.no/fhir/StructureDefinition/sfm-regInfo"
					}
				],
				"identifier": [
					{
						"use": "usual",
						"type": {
							"text": "PLL"
						},
						"value": "af507b4f-2cd6-4469-bb81-191232149369"
					},
					{
						"use": "usual",
						"type": {
							"text": "ReseptId"
						},
						"value": "b2fd5708-8eb8-4ca4-9fdd-190e1b641d04"
					}
				],
				"status": "active",
				"medicationReference": {
					"reference": "urn:uuid:12430289"
				},
				"subject": {
					"reference": "urn:uuid:0d2accdb-d01f-4889-b262-216384a490f3",
					"display": "sfm-Patient"
				},
				"dosage": [
					{
						"extension": [
							{
								"extension": [
									{
										"url": "text",
										"valueString": "MOT DEPRESJON"
									}
								],
								"url": "http://example.org/fhir/StructureDefinition/sfm-application-area"
							},
							{
								"url": "http://ehelse.no/fhir/StructureDefinition/sfm-shortdosage",
								"valueCodeableConcept": {
									"coding": [
										{
											"system": "urn:oid:2.16.578.1.12.4.1.1.7478",
											"code": "93",
											"display": "1 daglig"
										}
									]
								}
							},
							{
								"url": "http://ehelse.no/fhir/StructureDefinition/sfm-use",
								"valueCodeableConcept": {
									"coding": [
										{
											"system": "urn:oid:2.16.578.1.12.4.1.1.9101",
											"code": "1",
											"display": "Fast"
										}
									]
								}
							}
						],
						"sequence": 1,
						"text": "1 tablett daglig"
					}
				]
			}
		},
		{
			"fullUrl": "urn:uuid:2742368",
			"resource": {
				"resourceType": "Medication",
				"id": "2742368",
				"meta": {
					"profile": [
						"http://ehelse.no/fhir/StructureDefinition/sfm-Medication"
					]
				},
				"extension": [
					{
						"extension": [
							{
								"url": "prescriptiongroup",
								"valueCodeableConcept": {
									"coding": [
										{
											"system": "urn:oid:2.16.578.1.12.4.1.1.7421",
											"code": "C",
											"display": "Reseptgruppe C"
										}
									]
								}
							}
						],
						"url": "http://hl7.no/fhir/StructureDefinition/no-basis-prescriptiongroup"
					},
					{
						"extension": [
							{
								"url": "administrationway",
								"valueCodeableConcept": {
									"coding": [
										{
											"system": "urn:oid:2.16.578.1.12.4.1.1.7477",
											"code": "Oral bruk"
										}
									]
								}
							},
							{
								"url": "name",
								"valueString": "Esomeprazol Enterogran til mikst 10 mg"
							}
						],
						"url": "http://ehelse.no/fhir/StructureDefinition/sfm-medicationdetails"
					}
				],
				"identifier": [
					{
						"use": "official",
						"type": {
							"text": "identifier"
						},
						"value": "ID_EA7352DE-2DC9-4F5F-B028-FA802B02E51F"
					}
				],
				"code": {
					"coding": [
						{
							"system": "http://ehelse.no/fhir/CodeSystem/FEST",
							"code": "ID_EA7352DE-2DC9-4F5F-B028-FA802B02E51F",
							"display": "Esomeprazol Enterogran til mikst 10 mg"
						},
						{
							"system": "http://www.whocc.no/atc",
							"code": "A02BC05",
							"display": "Esomeprazol"
						}
					]
				},
				"status": "active",
				"form": {
					"coding": [
						{
							"system": "urn:oid:2.16.578.1.12.4.1.1.7448",
							"code": "398",
							"display": "Enterogranulat til mikstur"
						}
					]
				}
			}
		},
		{
			"fullUrl": "urn:uuid:14631525",
			"resource": {
				"resourceType": "Medication",
				"id": "14631525",
				"meta": {
					"profile": [
						"http://ehelse.no/fhir/StructureDefinition/sfm-Medication"
					]
				},
				"extension": [
					{
						"extension": [
							{
								"url": "prescriptiongroup",
								"valueCodeableConcept": {
									"coding": [
										{
											"system": "urn:oid:2.16.578.1.12.4.1.1.7421",
											"code": "C",
											"display": "Reseptgruppe C"
										}
									]
								}
							}
						],
						"url": "http://hl7.no/fhir/StructureDefinition/no-basis-prescriptiongroup"
					},
					{
						"extension": [
							{
								"url": "administrationway",
								"valueCodeableConcept": {
									"coding": [
										{
											"system": "urn:oid:2.16.578.1.12.4.1.1.7477",
											"code": "Oral bruk"
										}
									]
								}
							},
							{
								"url": "name",
								"valueString": "Esomeprazol Enterogran til mikst 10 mg"
							}
						],
						"url": "http://ehelse.no/fhir/StructureDefinition/sfm-medicationdetails"
					}
				],
				"identifier": [
					{
						"use": "official",
						"type": {
							"text": "identifier"
						},
						"value": "ID_EA7352DE-2DC9-4F5F-B028-FA802B02E51F"
					}
				],
				"code": {
					"coding": [
						{
							"system": "http://ehelse.no/fhir/CodeSystem/FEST",
							"code": "ID_EA7352DE-2DC9-4F5F-B028-FA802B02E51F",
							"display": "Esomeprazol Enterogran til mikst 10 mg"
						},
						{
							"system": "http://www.whocc.no/atc",
							"code": "A02BC05",
							"display": "Esomeprazol"
						}
					]
				},
				"status": "active",
				"form": {
					"coding": [
						{
							"system": "urn:oid:2.16.578.1.12.4.1.1.7448",
							"code": "398",
							"display": "Enterogranulat til mikstur"
						}
					]
				}
			}
		},
		{
			"fullUrl": "urn:uuid:b9c557fa-8ba9-4ce9-9e6c-e16c75b4ea39",
			"resource": {
				"resourceType": "MedicationStatement",
				"id": "b9c557fa-8ba9-4ce9-9e6c-e16c75b4ea39",
				"extension": [
					{
						"extension": [
							{
								"url": "reseptDate",
								"valueDate": "2020-04-15"
							},
							{
								"url": "expirationdate",
								"valueDate": "2021-04-14"
							},
							{
								"url": "festUpdate",
								"valueDateTime": "2020-03-09T10:31:53+01:00"
							},
							{
								"url": "dssn",
								"valueString": "1 daglig Røres ut i 15 ml vann og svelges"
							},
							{
								"url": "lockedResept",
								"valueBoolean": false
							},
							{
								"url": "amount",
								"valueQuantity": {
									"value": 92.0,
									"unit": "stk",
									"system": "http://unitsofmeasure.org",
									"code": "stk"
								}
							},
							{
								"url": "reit",
								"valueString": "3"
							},
							{
								"url": "itemgroup",
								"valueCodeableConcept": {
									"coding": [
										{
											"system": "urn:oid:2.16.578.1.12.4.1.1.7402",
											"code": "L",
											"display": "Legemiddel"
										}
									]
								}
							},
							{
								"extension": [
									{
										"url": "recallId",
										"valueString": "02f132ad-e6f3-4802-86f7-18ac7d993fcb"
									},
									{
										"url": "text",
										"valueString": "Ikke oppgitt"
									},
									{
										"url": "recallcode",
										"valueCodeableConcept": {
											"coding": [
												{
													"system": "urn:oid:2.16.578.1.12.4.1.1.7500",
													"code": "3"
												}
											]
										}
									}
								],
								"url": "recallinfo"
							},
							{
								"extension": [
									{
										"url": "recallStatus",
										"valueBoolean": true
									},
									{
										"url": "status",
										"valueCodeableConcept": {
											"coding": [
												{
													"system": "urn:oid:2.16.578.1.12.4.1.1.7408",
													"code": "T",
													"display": "Tilbakekalt"
												}
											]
										}
									}
								],
								"url": "rfstatus"
							}
						],
						"url": "http://ehelse.no/fhir/StructureDefinition/sfm-reseptamendment"
					},
					{
						"extension": [
							{
								"url": "status",
								"valueCodeableConcept": {
									"coding": [
										{
											"system": "http://ehelse.no/fhir/CodeSystem/sfm-medicationstatement-registration-status",
											"code": "3",
											"display": "Godkjent"
										}
									]
								}
							},
							{
								"url": "type",
								"valueCodeableConcept": {
									"coding": [
										{
											"system": "http://ehelse.no/fhir/CodeSystem/sfm-performer-roles",
											"code": "1",
											"display": "Forskrevet av"
										}
									]
								}
							},
							{
								"url": "helseperson",
								"valueReference": {
									"reference": "urn:uuid:1530821445"
								}
							},
							{
								"url": "timestamp",
								"valueDateTime": "2020-04-15T12:16:17.0340431+02:00"
							}
						],
						"url": "http://ehelse.no/fhir/StructureDefinition/sfm-regInfo"
					}
				],
				"identifier": [
					{
						"use": "usual",
						"type": {
							"text": "ReseptId"
						},
						"value": "02f132ad-e6f3-4802-86f7-18ac7d993fcb"
					}
				],
				"partOf": [
					{
						"reference": "urn:uuid:04f6732b-1309-48e6-85e6-736ed986e3e5",
						"display": "MedicationStatement"
					}
				],
				"status": "completed",
				"medicationReference": {
					"reference": "urn:uuid:14631525"
				},
				"subject": {
					"reference": "urn:uuid:0d2accdb-d01f-4889-b262-216384a490f3",
					"display": "sfm-Patient"
				},
				"dosage": [
					{
						"extension": [
							{
								"extension": [
									{
										"url": "text",
										"valueString": "MOT SPISERØRSSYKDOM"
									}
								],
								"url": "http://example.org/fhir/StructureDefinition/sfm-application-area"
							},
							{
								"url": "http://ehelse.no/fhir/StructureDefinition/sfm-shortdosage",
								"valueCodeableConcept": {
									"coding": [
										{
											"system": "urn:oid:2.16.578.1.12.4.1.1.7478",
											"code": "5343",
											"display": "1 daglig Røres ut i 15 ml vann og svelges"
										}
									]
								}
							},
							{
								"url": "http://ehelse.no/fhir/StructureDefinition/sfm-use",
								"valueCodeableConcept": {
									"coding": [
										{
											"system": "urn:oid:2.16.578.1.12.4.1.1.9101",
											"code": "1",
											"display": "Fast"
										}
									]
								}
							}
						],
						"sequence": 1,
						"text": "1 daglig Røres ut i 15 ml vann og svelges"
					}
				]
			}
		},
		{
			"fullUrl": "urn:uuid:04f6732b-1309-48e6-85e6-736ed986e3e5",
			"resource": {
				"resourceType": "MedicationStatement",
				"id": "04f6732b-1309-48e6-85e6-736ed986e3e5",
				"extension": [
					{
						"extension": [
							{
								"url": "reseptDate",
								"valueDate": "2020-05-05"
							},
							{
								"url": "expirationdate",
								"valueDate": "2021-05-05"
							},
							{
								"url": "festUpdate",
								"valueDateTime": "2020-04-24T09:44:30+02:00"
							},
							{
								"url": "dssn",
								"valueString": "2 poser daglig. Røres ut i 30 ml vann og svelges"
							},
							{
								"url": "lockedResept",
								"valueBoolean": false
							},
							{
								"url": "amount",
								"valueQuantity": {
									"value": 92.0,
									"unit": "stk",
									"system": "http://unitsofmeasure.org",
									"code": "stk"
								}
							},
							{
								"url": "reit",
								"valueString": "3"
							},
							{
								"url": "speciality",
								"valueCodeableConcept": {
									"coding": [
										{
											"system": "urn:oid:2.16.578.1.12.4.1.1.7426",
											"code": "190",
											"display": "Indremedisin"
										}
									]
								}
							},
							{
								"url": "itemgroup",
								"valueCodeableConcept": {
									"coding": [
										{
											"system": "urn:oid:2.16.578.1.12.4.1.1.7402",
											"code": "L",
											"display": "Legemiddel"
										}
									]
								}
							},
							{
								"extension": [
									{
										"url": "recallStatus",
										"valueBoolean": false
									},
									{
										"url": "status",
										"valueCodeableConcept": {
											"coding": [
												{
													"system": "urn:oid:2.16.578.1.12.4.1.1.7408",
													"code": "E",
													"display": "Ekspederbar"
												}
											]
										}
									}
								],
								"url": "rfstatus"
							}
						],
						"url": "http://ehelse.no/fhir/StructureDefinition/sfm-reseptamendment"
					},
					{
						"extension": [
							{
								"url": "status",
								"valueCodeableConcept": {
									"coding": [
										{
											"system": "http://ehelse.no/fhir/CodeSystem/sfm-medicationstatement-registration-status",
											"code": "3",
											"display": "Godkjent"
										}
									]
								}
							},
							{
								"url": "type",
								"valueCodeableConcept": {
									"coding": [
										{
											"system": "http://ehelse.no/fhir/CodeSystem/sfm-performer-roles",
											"code": "1",
											"display": "Forskrevet av"
										}
									]
								}
							},
							{
								"url": "helseperson",
								"valueReference": {
									"reference": "urn:uuid:1402057795"
								}
							},
							{
								"url": "timestamp",
								"valueDateTime": "2020-05-05T10:38:12.3889658+02:00"
							}
						],
						"url": "http://ehelse.no/fhir/StructureDefinition/sfm-regInfo"
					}
				],
				"identifier": [
					{
						"use": "usual",
						"type": {
							"text": "PLL"
						},
						"value": "05cca8df-e463-4052-9cba-18d4ff9eb631"
					},
					{
						"use": "usual",
						"type": {
							"text": "ReseptId"
						},
						"value": "8118da22-bfc3-48ab-acd0-18d533b04388"
					}
				],
				"status": "active",
				"medicationReference": {
					"reference": "urn:uuid:2742368"
				},
				"subject": {
					"reference": "urn:uuid:0d2accdb-d01f-4889-b262-216384a490f3",
					"display": "sfm-Patient"
				},
				"dosage": [
					{
						"extension": [
							{
								"extension": [
									{
										"url": "text",
										"valueString": "MOT SPISERØRSSYKDOM"
									}
								],
								"url": "http://example.org/fhir/StructureDefinition/sfm-application-area"
							},
							{
								"url": "http://ehelse.no/fhir/StructureDefinition/sfm-shortdosage",
								"valueCodeableConcept": {
									"coding": [
										{
											"system": "urn:oid:2.16.578.1.12.4.1.1.7478",
											"code": "5342",
											"display": "2 daglig Røres ut i 30 ml vann og svelges"
										}
									]
								}
							},
							{
								"url": "http://ehelse.no/fhir/StructureDefinition/sfm-use",
								"valueCodeableConcept": {
									"coding": [
										{
											"system": "urn:oid:2.16.578.1.12.4.1.1.9101",
											"code": "1",
											"display": "Fast"
										}
									]
								}
							}
						],
						"sequence": 1,
						"text": "2 poser daglig. Røres ut i 30 ml vann og svelges"
					}
				]
			}
		},
		{
			"fullUrl": "urn:uuid:60827506",
			"resource": {
				"resourceType": "Medication",
				"id": "60827506",
				"meta": {
					"profile": [
						"http://ehelse.no/fhir/StructureDefinition/sfm-Medication"
					]
				},
				"extension": [
					{
						"extension": [
							{
								"url": "prescriptiongroup",
								"valueCodeableConcept": {
									"coding": [
										{
											"system": "urn:oid:2.16.578.1.12.4.1.1.7421",
											"code": "C",
											"display": "Reseptgruppe C"
										}
									]
								}
							}
						],
						"url": "http://hl7.no/fhir/StructureDefinition/no-basis-prescriptiongroup"
					},
					{
						"extension": [
							{
								"url": "maycrush",
								"valueCodeableConcept": {
									"coding": [
										{
											"system": "urn:oid:2.16.578.1.12.4.1.1.1103",
											"code": "2",
											"display": "Nei"
										}
									]
								}
							},
							{
								"url": "administrationway",
								"valueCodeableConcept": {
									"coding": [
										{
											"system": "urn:oid:2.16.578.1.12.4.1.1.7477",
											"code": "Oral bruk"
										}
									]
								}
							},
							{
								"url": "name",
								"valueString": "Mykofenolatmofetil Tab 500 mg"
							}
						],
						"url": "http://ehelse.no/fhir/StructureDefinition/sfm-medicationdetails"
					}
				],
				"identifier": [
					{
						"use": "official",
						"type": {
							"text": "identifier"
						},
						"value": "ID_A2E46FDA-BF74-4AF6-AA09-AB26437753A6"
					}
				],
				"code": {
					"coding": [
						{
							"system": "http://ehelse.no/fhir/CodeSystem/FEST",
							"code": "ID_A2E46FDA-BF74-4AF6-AA09-AB26437753A6",
							"display": "Mykofenolatmofetil Tab 500 mg"
						},
						{
							"system": "http://www.whocc.no/atc",
							"code": "L04AA06",
							"display": "Mykofenolsyre"
						}
					]
				},
				"status": "active",
				"form": {
					"coding": [
						{
							"system": "urn:oid:2.16.578.1.12.4.1.1.7448",
							"code": "53",
							"display": "Tablett"
						}
					]
				}
			}
		},
		{
			"fullUrl": "urn:uuid:caeeef80-5667-49be-aa77-9ddff90ebfdb",
			"resource": {
				"resourceType": "MedicationStatement",
				"id": "caeeef80-5667-49be-aa77-9ddff90ebfdb",
				"extension": [
					{
						"extension": [
							{
								"url": "reseptDate",
								"valueDate": "2020-05-05"
							},
							{
								"url": "expirationdate",
								"valueDate": "2021-04-27"
							},
							{
								"url": "festUpdate",
								"valueDateTime": "2020-03-25T12:55:05+01:00"
							},
							{
								"url": "dssn",
								"valueString": "2 tabletter morgen og 2 tabletter kveld i 1 dag"
							},
							{
								"url": "lockedResept",
								"valueBoolean": false
							},
							{
								"url": "amount",
								"valueQuantity": {
									"value": 4.0,
									"unit": "stk",
									"system": "http://unitsofmeasure.org",
									"code": "stk"
								}
							},
							{
								"url": "reit",
								"valueString": "0"
							},
							{
								"url": "itemgroup",
								"valueCodeableConcept": {
									"coding": [
										{
											"system": "urn:oid:2.16.578.1.12.4.1.1.7402",
											"code": "L",
											"display": "Legemiddel"
										}
									]
								}
							},
							{
								"extension": [
									{
										"url": "starttime",
										"valueDateTime": "2020-05-05T02:00:00+02:00"
									},
									{
										"url": "endtime",
										"valueDateTime": "2020-05-06T02:00:00+02:00"
									},
									{
										"extension": [
											{
												"url": "amount",
												"valueQuantity": {
													"value": 2.0,
													"unit": "tablett",
													"system": "http://unitsofmeasure.org",
													"code": "tablett"
												}
											},
											{
												"url": "interval",
												"valueCodeableConcept": {
													"coding": [
														{
															"system": "urn:oid:2.16.578.1.12.4.1.1.9088",
															"code": "1",
															"display": "Døgn"
														}
													]
												}
											},
											{
												"url": "timerange",
												"valueCodeableConcept": {
													"coding": [
														{
															"system": "urn:oid:2.16.578.1.12.4.1.1.8325",
															"code": "1",
															"display": "Morgen"
														}
													]
												}
											},
											{
												"url": "accurate",
												"valueBoolean": false
											}
										],
										"url": "repeatingdosage"
									},
									{
										"extension": [
											{
												"url": "amount",
												"valueQuantity": {
													"value": 2.0,
													"unit": "tablett",
													"system": "http://unitsofmeasure.org",
													"code": "tablett"
												}
											},
											{
												"url": "interval",
												"valueCodeableConcept": {
													"coding": [
														{
															"system": "urn:oid:2.16.578.1.12.4.1.1.9088",
															"code": "1",
															"display": "Døgn"
														}
													]
												}
											},
											{
												"url": "timerange",
												"valueCodeableConcept": {
													"coding": [
														{
															"system": "urn:oid:2.16.578.1.12.4.1.1.8325",
															"code": "5",
															"display": "Kveld"
														}
													]
												}
											},
											{
												"url": "accurate",
												"valueBoolean": false
											}
										],
										"url": "repeatingdosage"
									}
								],
								"url": "ereseptdosing"
							},
							{
								"extension": [
									{
										"url": "recallId",
										"valueString": "4f297e20-f272-4c61-9360-18d4d5b20802"
									},
									{
										"url": "text",
										"valueString": "Ikke oppgitt"
									},
									{
										"url": "recallcode",
										"valueCodeableConcept": {
											"coding": [
												{
													"system": "urn:oid:2.16.578.1.12.4.1.1.7500",
													"code": "2"
												}
											]
										}
									}
								],
								"url": "recallinfo"
							},
							{
								"extension": [
									{
										"url": "recallStatus",
										"valueBoolean": true
									},
									{
										"url": "status",
										"valueCodeableConcept": {
											"coding": [
												{
													"system": "urn:oid:2.16.578.1.12.4.1.1.7408",
													"code": "T",
													"display": "Tilbakekalt"
												}
											]
										}
									}
								],
								"url": "rfstatus"
							}
						],
						"url": "http://ehelse.no/fhir/StructureDefinition/sfm-reseptamendment"
					},
					{
						"extension": [
							{
								"url": "status",
								"valueCodeableConcept": {
									"coding": [
										{
											"system": "http://ehelse.no/fhir/CodeSystem/sfm-medicationstatement-registration-status",
											"code": "3",
											"display": "Godkjent"
										}
									]
								}
							},
							{
								"url": "type",
								"valueCodeableConcept": {
									"coding": [
										{
											"system": "http://ehelse.no/fhir/CodeSystem/sfm-performer-roles",
											"code": "1",
											"display": "Forskrevet av"
										}
									]
								}
							},
							{
								"url": "helseperson",
								"valueReference": {
									"reference": "urn:uuid:1530821445"
								}
							},
							{
								"url": "timestamp",
								"valueDateTime": "2020-05-05T08:18:16.3132314+02:00"
							}
						],
						"url": "http://ehelse.no/fhir/StructureDefinition/sfm-regInfo"
					}
				],
				"identifier": [
					{
						"use": "usual",
						"type": {
							"text": "ReseptId"
						},
						"value": "4f297e20-f272-4c61-9360-18d4d5b20802"
					}
				],
				"status": "active",
				"medicationReference": {
					"reference": "urn:uuid:60827506"
				},
				"subject": {
					"reference": "urn:uuid:0d2accdb-d01f-4889-b262-216384a490f3",
					"display": "sfm-Patient"
				},
				"dosage": [
					{
						"extension": [
							{
								"extension": [
									{
										"url": "text",
										"valueString": "VED TRANSPLANTASJON"
									}
								],
								"url": "http://example.org/fhir/StructureDefinition/sfm-application-area"
							},
							{
								"url": "http://ehelse.no/fhir/StructureDefinition/sfm-use",
								"valueCodeableConcept": {
									"coding": [
										{
											"system": "urn:oid:2.16.578.1.12.4.1.1.9101",
											"code": "1",
											"display": "Fast"
										}
									]
								}
							}
						],
						"sequence": 1,
						"text": "2 tabletter morgen og 2 tabletter kveld i 1 dag"
					}
				]
			}
		},
		{
			"fullUrl": "urn:uuid:13887156",
			"resource": {
				"resourceType": "Medication",
				"id": "13887156",
				"meta": {
					"profile": [
						"http://ehelse.no/fhir/StructureDefinition/sfm-Medication"
					]
				},
				"extension": [
					{
						"extension": [
							{
								"url": "prescriptiongroup",
								"valueCodeableConcept": {
									"coding": [
										{
											"system": "urn:oid:2.16.578.1.12.4.1.1.7421",
											"code": "C",
											"display": "Reseptgruppe C"
										}
									]
								}
							}
						],
						"url": "http://hl7.no/fhir/StructureDefinition/no-basis-prescriptiongroup"
					}
				],
				"identifier": [
					{
						"use": "official",
						"type": {
							"text": "identifier"
						},
						"value": "153730"
					}
				],
				"code": {
					"coding": [
						{
							"system": "http://ehelse.no/fhir/CodeSystem/FEST",
							"code": "153730",
							"display": "Calcigran Forte Tyggetab 1000 mg/800 IE"
						},
						{
							"system": "http://www.whocc.no/atc",
							"code": "A12AX",
							"display": "Kalsium, kombinasjoner med vitamin D og/eller andre stoffer"
						}
					]
				},
				"status": "active",
				"form": {
					"coding": [
						{
							"system": "urn:oid:2.16.578.1.12.4.1.1.7448",
							"code": "57",
							"display": "Tyggetablett"
						}
					]
				}
			}
		},
		{
			"fullUrl": "urn:uuid:15ccb68a-503c-4b47-9259-9146bdc75ac2",
			"resource": {
				"resourceType": "MedicationStatement",
				"id": "15ccb68a-503c-4b47-9259-9146bdc75ac2",
				"extension": [
					{
						"extension": [
							{
								"url": "reseptDate",
								"valueDate": "2020-05-05"
							},
							{
								"url": "expirationdate",
								"valueDate": "2021-05-05"
							},
							{
								"url": "festUpdate",
								"valueDateTime": "2020-04-24T09:44:30+02:00"
							},
							{
								"url": "dssn",
								"valueString": "1 tyggetablett daglig"
							},
							{
								"url": "lockedResept",
								"valueBoolean": false
							},
							{
								"url": "numberofpackages",
								"valueDecimal": 2.0
							},
							{
								"url": "reit",
								"valueString": "3"
							},
							{
								"url": "speciality",
								"valueCodeableConcept": {
									"coding": [
										{
											"system": "urn:oid:2.16.578.1.12.4.1.1.7426",
											"code": "190",
											"display": "Indremedisin"
										}
									]
								}
							},
							{
								"url": "itemgroup",
								"valueCodeableConcept": {
									"coding": [
										{
											"system": "urn:oid:2.16.578.1.12.4.1.1.7402",
											"code": "L",
											"display": "Legemiddel"
										}
									]
								}
							},
							{
								"extension": [
									{
										"url": "starttime",
										"valueDateTime": "2020-05-05T02:00:00+02:00"
									},
									{
										"extension": [
											{
												"url": "amount",
												"valueQuantity": {
													"value": 1.0,
													"unit": "tyggetablett",
													"system": "http://unitsofmeasure.org",
													"code": "tyggetablett"
												}
											},
											{
												"url": "interval",
												"valueCodeableConcept": {
													"coding": [
														{
															"system": "urn:oid:2.16.578.1.12.4.1.1.9088",
															"code": "1",
															"display": "Døgn"
														}
													]
												}
											},
											{
												"url": "timerange",
												"valueCodeableConcept": {
													"coding": [
														{
															"system": "urn:oid:2.16.578.1.12.4.1.1.8325",
															"code": "1",
															"display": "Morgen"
														}
													]
												}
											},
											{
												"url": "accurate",
												"valueBoolean": false
											}
										],
										"url": "repeatingdosage"
									}
								],
								"url": "ereseptdosing"
							},
							{
								"extension": [
									{
										"url": "recallId",
										"valueString": "3ff467e0-612a-4b96-af02-18d52d6c39e2"
									},
									{
										"url": "text",
										"valueString": "Ikke oppgitt"
									},
									{
										"url": "recallcode",
										"valueCodeableConcept": {
											"coding": [
												{
													"system": "urn:oid:2.16.578.1.12.4.1.1.7500",
													"code": "3"
												}
											]
										}
									}
								],
								"url": "recallinfo"
							},
							{
								"extension": [
									{
										"url": "recallStatus",
										"valueBoolean": true
									},
									{
										"url": "status",
										"valueCodeableConcept": {
											"coding": [
												{
													"system": "urn:oid:2.16.578.1.12.4.1.1.7408",
													"code": "T",
													"display": "Tilbakekalt"
												}
											]
										}
									}
								],
								"url": "rfstatus"
							}
						],
						"url": "http://ehelse.no/fhir/StructureDefinition/sfm-reseptamendment"
					},
					{
						"extension": [
							{
								"url": "status",
								"valueCodeableConcept": {
									"coding": [
										{
											"system": "http://ehelse.no/fhir/CodeSystem/sfm-medicationstatement-registration-status",
											"code": "3",
											"display": "Godkjent"
										}
									]
								}
							},
							{
								"url": "type",
								"valueCodeableConcept": {
									"coding": [
										{
											"system": "http://ehelse.no/fhir/CodeSystem/sfm-performer-roles",
											"code": "1",
											"display": "Forskrevet av"
										}
									]
								}
							},
							{
								"url": "helseperson",
								"valueReference": {
									"reference": "urn:uuid:1402057795"
								}
							},
							{
								"url": "timestamp",
								"valueDateTime": "2020-05-05T10:20:52.7226208+02:00"
							}
						],
						"url": "http://ehelse.no/fhir/StructureDefinition/sfm-regInfo"
					}
				],
				"identifier": [
					{
						"use": "usual",
						"type": {
							"text": "PLL"
						},
						"value": "1b88ff03-c675-443c-a42f-18d52d632366"
					},
					{
						"use": "usual",
						"type": {
							"text": "ReseptId"
						},
						"value": "3ff467e0-612a-4b96-af02-18d52d6c39e2"
					}
				],
				"status": "active",
				"medicationReference": {
					"reference": "urn:uuid:13887156"
				},
				"subject": {
					"reference": "urn:uuid:0d2accdb-d01f-4889-b262-216384a490f3",
					"display": "sfm-Patient"
				},
				"dosage": [
					{
						"extension": [
							{
								"extension": [
									{
										"url": "text",
										"valueString": "MOT BENSKJØRHET"
									}
								],
								"url": "http://example.org/fhir/StructureDefinition/sfm-application-area"
							},
							{
								"url": "http://ehelse.no/fhir/StructureDefinition/sfm-shortdosage",
								"valueCodeableConcept": {
									"coding": [
										{
											"system": "urn:oid:2.16.578.1.12.4.1.1.7478",
											"code": "93",
											"display": "1 daglig"
										}
									]
								}
							},
							{
								"url": "http://ehelse.no/fhir/StructureDefinition/sfm-use",
								"valueCodeableConcept": {
									"coding": [
										{
											"system": "urn:oid:2.16.578.1.12.4.1.1.9101",
											"code": "1",
											"display": "Fast"
										}
									]
								}
							}
						],
						"sequence": 1,
						"text": "1 tyggetablett daglig"
					}
				]
			}
		},
		{
			"fullUrl": "urn:uuid:29b752dd-025c-43b3-bb4c-e5be6589ba00",
			"resource": {
				"resourceType": "Basic",
				"id": "29b752dd-025c-43b3-bb4c-e5be6589ba00",
				"extension": [
					{
						"extension": [
							{
								"url": "productgroup",
								"valueCodeableConcept": {
									"coding": [
										{
											"system": "urn:oid:2.16.578.1.12.4.1.1.7403",
											"code": "A",
											"display": "Annet"
										}
									]
								}
							}
						],
						"url": "http://ehelse.no/fhir/StructureDefinition/sfm-reseptdocbanda"
					},
					{
						"extension": [
							{
								"url": "reseptDate",
								"valueDate": "2020-05-05"
							},
							{
								"url": "expirationdate",
								"valueDate": "2021-05-05"
							},
							{
								"url": "festUpdate",
								"valueDateTime": "2020-03-25T12:55:05+01:00"
							},
							{
								"url": "lockedResept",
								"valueBoolean": false
							},
							{
								"url": "itemgroup",
								"valueCodeableConcept": {
									"coding": [
										{
											"system": "urn:oid:2.16.578.1.12.4.1.1.7402",
											"code": "A",
											"display": "Annet"
										}
									]
								}
							},
							{
								"url": "reimbursmentparagraph",
								"valueCodeableConcept": {
									"coding": [
										{
											"system": "urn:oid:2.16.578.1.12.4.1.1.7427",
											"code": "501"
										}
									]
								}
							},
							{
								"extension": [
									{
										"url": "recallStatus",
										"valueBoolean": false
									},
									{
										"url": "status",
										"valueCodeableConcept": {
											"coding": [
												{
													"system": "urn:oid:2.16.578.1.12.4.1.1.7408",
													"code": "E",
													"display": "Ekspederbar"
												}
											]
										}
									}
								],
								"url": "rfstatus"
							}
						],
						"url": "http://ehelse.no/fhir/StructureDefinition/sfm-reseptamendment"
					}
				],
				"code": {
					"coding": [
						{
							"system": "urn:oid:2.16.578.1.12.4.1.1.7402",
							"code": "A"
						}
					],
					"text": "Annet"
				}
			}
		},
		{
			"fullUrl": "urn:uuid:c6f04d13-32ee-4e78-8a8a-013a7384f3a4",
			"resource": {
				"resourceType": "Basic",
				"id": "c6f04d13-32ee-4e78-8a8a-013a7384f3a4",
				"extension": [
					{
						"extension": [
							{
								"url": "productgroup",
								"valueCodeableConcept": {
									"coding": [
										{
											"system": "urn:oid:2.16.578.1.12.4.1.1.7403",
											"code": "A",
											"display": "Annet"
										}
									]
								}
							}
						],
						"url": "http://ehelse.no/fhir/StructureDefinition/sfm-reseptdocbanda"
					},
					{
						"extension": [
							{
								"url": "reseptDate",
								"valueDate": "2020-05-05"
							},
							{
								"url": "expirationdate",
								"valueDate": "2021-05-05"
							},
							{
								"url": "festUpdate",
								"valueDateTime": "2020-03-25T12:55:05+01:00"
							},
							{
								"url": "lockedResept",
								"valueBoolean": false
							},
							{
								"url": "itemgroup",
								"valueCodeableConcept": {
									"coding": [
										{
											"system": "urn:oid:2.16.578.1.12.4.1.1.7402",
											"code": "A",
											"display": "Annet"
										}
									]
								}
							},
							{
								"url": "reimbursmentparagraph",
								"valueCodeableConcept": {
									"coding": [
										{
											"system": "urn:oid:2.16.578.1.12.4.1.1.7427",
											"code": "501"
										}
									]
								}
							},
							{
								"extension": [
									{
										"url": "recallStatus",
										"valueBoolean": false
									},
									{
										"url": "status",
										"valueCodeableConcept": {
											"coding": [
												{
													"system": "urn:oid:2.16.578.1.12.4.1.1.7408",
													"code": "E",
													"display": "Ekspederbar"
												}
											]
										}
									}
								],
								"url": "rfstatus"
							}
						],
						"url": "http://ehelse.no/fhir/StructureDefinition/sfm-reseptamendment"
					}
				],
				"code": {
					"coding": [
						{
							"system": "urn:oid:2.16.578.1.12.4.1.1.7402",
							"code": "A"
						}
					],
					"text": "Annet"
				}
			}
		},
		{
			"fullUrl": "urn:uuid:63a4a7f5-209a-4f98-b2b7-6754bb059404",
			"resource": {
				"resourceType": "Basic",
				"id": "63a4a7f5-209a-4f98-b2b7-6754bb059404",
				"extension": [
					{
						"extension": [
							{
								"url": "substitute",
								"valueBoolean": false
							},
							{
								"url": "relatedparties",
								"valueReference": {
									"reference": "urn:uuid:1636908334",
									"display": "sfm-PractitionerRole"
								}
							},
							{
								"extension": [
									{
										"url": "prescriptionId",
										"valueReference": {
											"reference": "urn:uuid:6281d110-b4e7-44bf-aca1-1a96d7e001a2",
											"display": "sfm-MedicationStatement"
										}
									},
									{
										"url": "deliverydoc",
										"valueReference": {
											"reference": "urn:uuid:2f8bb0b5-6423-421d-8a65-27fede033bd8",
											"display": "sfm-MedicationDispense"
										}
									},
									{
										"url": "pictureref"
									},
									{
										"url": "refM10",
										"valueString": "2f8bb0b5-6423-421d-8a65-27fede033bd8"
									}
								],
								"url": "deliveryinformation"
							}
						],
						"url": "http://ehelse.no/fhir/StructureDefinition/sfm-pllInformation"
					}
				],
				"code": {
					"coding": [
						{
							"system": "http://ehelse.no/fhir/CodeSystem/sfm-message-type",
							"code": "M25.1",
							"display": "PLL"
						}
					]
				}
			}
		},
		{
			"fullUrl": "urn:uuid:262069210",
			"resource": {
				"resourceType": "PractitionerRole",
				"id": "262069210",
				"practitioner": {
					"reference": "urn:uuid:1402057795"
				},
				"code": [
					{
						"coding": [
							{
								"system": "urn:oid:2.16.578.1.12.4.1.1.7490",
								"code": "F",
								"display": "Fastlege"
							}
						]
					}
				]
			}
		},
		{
			"fullUrl": "urn:uuid:1636908334",
			"resource": {
				"resourceType": "PractitionerRole",
				"id": "1636908334",
				"practitioner": {
					"reference": "urn:uuid:1402057795"
				},
				"code": [
					{
						"coding": [
							{
								"system": "urn:oid:2.16.578.1.12.4.1.1.7490",
								"code": "L",
								"display": "LIB-ansvarlig lege"
							}
						]
					}
				]
			}
		},
		{
			"fullUrl": "urn:uuid:db62df3d-805c-4147-941a-2ce4da94b063",
			"resource": {
				"resourceType": "AllergyIntolerance",
				"id": "db62df3d-805c-4147-941a-2ce4da94b063",
				"extension": [
					{
						"url": "http://nhn.no/kj/fhir/StructureDefinition/KjUpdatedDateTime",
						"valueDateTime": "2020-06-04T12:38:01.793+02:00"
					},
					{
						"url": "http://nhn.no/kj/fhir/StructureDefinition/KjSourceOfInformation",
						"valueCoding": {
							"system": "http://nhn.no/kj/fhir/CodeSystem/SourceOfInformation",
							"code": "3",
							"display": "Pasientens egne opplysninger"
						}
					},
					{
						"url": "http://nhn.no/kj/fhir/StructureDefinition/KjUpdater",
						"valueReference": {
							"reference": "urn:uuid:1636908334",
							"display": "KjPractitionerRole"
						}
					}
				],
				"clinicalStatus": {
					"coding": [
						{
							"system": "http://terminology.hl7.org/CodeSystem/allergyintolerance-clinical",
							"code": "active",
							"display": "Active"
						}
					]
				},
				"verificationStatus": {
					"coding": [
						{
							"system": "http://terminology.hl7.org/CodeSystem/allergyintolerance-verification",
							"code": "unconfirmed",
							"display": "Unconfirmed"
						}
					]
				},
				"category": [
					"medication"
				],
				"criticality": "high",
				"code": {
					"coding": [
						{
							"system": "http://nhn.no/kj/fhir/CodeSystem/ActiveSubstance",
							"code": "ID_C9D2BF2D-A0F8-46EC-9861-FE58536C8A41",
							"display": "Ramipril"
						}
					]
				},
				"patient": {
					"reference": "urn:uuid:0d2accdb-d01f-4889-b262-216384a490f3",
					"display": "sfm-Patient"
				},
				"recordedDate": "2020-06-04",
				"reaction": [
					{
						"manifestation": [
							{
								"coding": [
									{
										"system": "http://nhn.no/kj/fhir/CodeSystem/TypeOfReaction",
										"code": "19",
										"display": "Annen mindre alvorlig reaksjon"
									}
								]
							}
						]
					}
				]
			}
		}
	]
}